filename,browser,version,screenWidth,screenHeight,OS,OS_lang,GMT_timestamp,local_timestamp,trial_file_version,link,duration_s,duration,duration_m,rowNo,type,stim1,textColor,key,condition1,condition2,feedback,stimFormat,ITI,keyboard,random,head,responseType,responseOptions,responseOther,ITI_ms,ITI_f,ITI_fDuration,timestamp,response,RT,correct,responseCode
661427_260413_160726.csv,Microsoft Edge,146.0.0.0,1280,800,Windows,en-US,2026-04-13_16:04:28,2026-04-13_12:04:28,2026-04-13_14:46:24,https://www.testable.org/experiment/20534/661427/start,178.396,178396,2.9732,3,test,CAR,green,right,practice,,correct: That's correct! You responded in %RT% milliseconds; incorrect: That's incorrect. You responded in %RT% milliseconds.,word,800,left up right,,,,,,800,48,16.67,29276,right,3037,1,
661427_260413_160726.csv,Microsoft Edge,146.0.0.0,1280,800,Windows,en-US,2026-04-13_16:04:28,2026-04-13_12:04:28,2026-04-13_14:46:24,https://www.testable.org/experiment/20534/661427/start,178.396,178396,2.9732,4,test,SHOE,blue,up,practice,,correct: That's correct! You responded in %RT% milliseconds; incorrect: That's incorrect. You responded in %RT% milliseconds.,word,800,left up right,,,,,,799,48,16.65,35375,up,889,1,
661427_260413_160726.csv,Microsoft Edge,146.0.0.0,1280,800,Windows,en-US,2026-04-13_16:04:28,2026-04-13_12:04:28,2026-04-13_14:46:24,https://www.testable.org/experiment/20534/661427/start,178.396,178396,2.9732,5,test,RED,red,left,practice,,correct: That's correct! You responded in %RT% milliseconds; incorrect: That's incorrect. You responded in %RT% milliseconds.,word,800,left up right,,,,,,800,48,16.67,37906,left,323,1,
661427_260413_160726.csv,Microsoft Edge,146.0.0.0,1280,800,Windows,en-US,2026-04-13_16:04:28,2026-04-13_12:04:28,2026-04-13_14:46:24,https://www.testable.org/experiment/20534/661427/start,178.396,178396,2.9732,6,test,HOUSE,blue,up,practice,,correct: That's correct! You responded in %RT% milliseconds; incorrect: That's incorrect. You responded in %RT% milliseconds.,word,800,left up right,,,,,,800,48,16.66,40606,up,724,1,
661427_260413_160726.csv,Microsoft Edge,146.0.0.0,1280,800,Windows,en-US,2026-04-13_16:04:28,2026-04-13_12:04:28,2026-04-13_14:46:24,https://www.testable.org/experiment/20534/661427/start,178.396,178396,2.9732,7,test,BLUE,green,right,practice,,correct: That's correct! You responded in %RT% milliseconds; incorrect: That's incorrect. You responded in %RT% milliseconds.,word,800,left up right,,,,,,800,48,16.66,43270,right,702,1,
661427_260413_160726.csv,Microsoft Edge,146.0.0.0,1280,800,Windows,en-US,2026-04-13_16:04:28,2026-04-13_12:04:28,2026-04-13_14:46:24,https://www.testable.org/experiment/20534/661427/start,178.396,178396,2.9732,8,test,GREEN,red,left,practice,,correct: That's correct! You responded in %RT% milliseconds; incorrect: That's incorrect. You responded in %RT% milliseconds.,word,800,left up right,,,,,,799,48,16.65,45873,up,605,0,
661427_260413_160726.csv,Microsoft Edge,146.0.0.0,1280,800,Windows,en-US,2026-04-13_16:04:28,2026-04-13_12:04:28,2026-04-13_14:46:24,https://www.testable.org/experiment/20534/661427/start,178.396,178396,2.9732,20,test,GREEN,green,right,critical,congruent,,word,800,left up right,1,,,,,800,48,16.68,54392,right,925,1,
661427_260413_160726.csv,Microsoft Edge,146.0.0.0,1280,800,Windows,en-US,2026-04-13_16:04:28,2026-04-13_12:04:28,2026-04-13_14:46:24,https://www.testable.org/experiment/20534/661427/start,178.396,178396,2.9732,25,test,RED,blue,up,critical,incongruent,,word,800,left up right,1,,,,,799,48,16.65,56724,up,1538,1,
661427_260413_160726.csv,Microsoft Edge,146.0.0.0,1280,800,Windows,en-US,2026-04-13_16:04:28,2026-04-13_12:04:28,2026-04-13_14:46:24,https://www.testable.org/experiment/20534/661427/start,178.396,178396,2.9732,34,test,CAR,red,left,filler,,,word,800,left up right,1,,,,,800,48,16.67,58166,left,650,1,
661427_260413_160726.csv,Microsoft Edge,146.0.0.0,1280,800,Windows,en-US,2026-04-13_16:04:28,2026-04-13_12:04:28,2026-04-13_14:46:24,https://www.testable.org/experiment/20534/661427/start,178.396,178396,2.9732,44,test,HOUSE,red,left,filler,,,word,800,left up right,1,,,,,800,48,16.66,59427,left,460,1,
661427_260413_160726.csv,Microsoft Edge,146.0.0.0,1280,800,Windows,en-US,2026-04-13_16:04:28,2026-04-13_12:04:28,2026-04-13_14:46:24,https://www.testable.org/experiment/20534/661427/start,178.396,178396,2.9732,39,test,SHOE,red,left,filler,,,word,800,left up right,1,,,,,800,48,16.66,60588,left,372,1,
661427_260413_160726.csv,Microsoft Edge,146.0.0.0,1280,800,Windows,en-US,2026-04-13_16:04:28,2026-04-13_12:04:28,2026-04-13_14:46:24,https://www.testable.org/experiment/20534/661427/start,178.396,178396,2.9732,33,test,GREEN,blue,up,critical,incongruent,,word,800,left up right,1,,,,,800,48,16.66,62113,up,723,1,
661427_260413_160726.csv,Microsoft Edge,146.0.0.0,1280,800,Windows,en-US,2026-04-13_16:04:28,2026-04-13_12:04:28,2026-04-13_14:46:24,https://www.testable.org/experiment/20534/661427/start,178.396,178396,2.9732,30,test,GREEN,red,left,critical,incongruent,,word,800,left up right,1,,,,,800,48,16.67,63989,left,1089,1,
661427_260413_160726.csv,Microsoft Edge,146.0.0.0,1280,800,Windows,en-US,2026-04-13_16:04:28,2026-04-13_12:04:28,2026-04-13_14:46:24,https://www.testable.org/experiment/20534/661427/start,178.396,178396,2.9732,40,test,SHOE,green,right,filler,,,word,800,left up right,1,,,,,800,48,16.67,66139,right,1357,1,
661427_260413_160726.csv,Microsoft Edge,146.0.0.0,1280,800,Windows,en-US,2026-04-13_16:04:28,2026-04-13_12:04:28,2026-04-13_14:46:24,https://www.testable.org/experiment/20534/661427/start,178.396,178396,2.9732,10,test,RED,red,left,critical,congruent,,word,800,left up right,1,,,,,801,48,16.69,67914,left,980,1,
661427_260413_160726.csv,Microsoft Edge,146.0.0.0,1280,800,Windows,en-US,2026-04-13_16:04:28,2026-04-13_12:04:28,2026-04-13_14:46:24,https://www.testable.org/experiment/20534/661427/start,178.396,178396,2.9732,23,test,RED,blue,up,critical,incongruent,,word,800,left up right,1,,,,,800,48,16.67,69043,up,344,1,
661427_260413_160726.csv,Microsoft Edge,146.0.0.0,1280,800,Windows,en-US,2026-04-13_16:04:28,2026-04-13_12:04:28,2026-04-13_14:46:24,https://www.testable.org/experiment/20534/661427/start,178.396,178396,2.9732,37,test,CAR,red,left,filler,,,word,800,left up right,1,,,,,801,48,16.68,70470,left,631,1,
661427_260413_160726.csv,Microsoft Edge,146.0.0.0,1280,800,Windows,en-US,2026-04-13_16:04:28,2026-04-13_12:04:28,2026-04-13_14:46:24,https://www.testable.org/experiment/20534/661427/start,178.396,178396,2.9732,42,test,HOUSE,green,right,filler,,,word,800,left up right,1,,,,,800,48,16.67,71840,right,574,1,
661427_260413_160726.csv,Microsoft Edge,146.0.0.0,1280,800,Windows,en-US,2026-04-13_16:04:28,2026-04-13_12:04:28,2026-04-13_14:46:24,https://www.testable.org/experiment/20534/661427/start,178.396,178396,2.9732,16,test,BLUE,blue,up,critical,congruent,,word,800,left up right,1,,,,,801,48,16.7,73260,up,627,1,
661427_260413_160726.csv,Microsoft Edge,146.0.0.0,1280,800,Windows,en-US,2026-04-13_16:04:28,2026-04-13_12:04:28,2026-04-13_14:46:24,https://www.testable.org/experiment/20534/661427/start,178.396,178396,2.9732,27,test,BLUE,green,right,critical,incongruent,,word,800,left up right,1,,,,,800,48,16.66,75310,right,1261,1,
661427_260413_160726.csv,Microsoft Edge,146.0.0.0,1280,800,Windows,en-US,2026-04-13_16:04:28,2026-04-13_12:04:28,2026-04-13_14:46:24,https://www.testable.org/experiment/20534/661427/start,178.396,178396,2.9732,14,test,BLUE,blue,up,critical,congruent,,word,800,left up right,1,,,,,800,48,16.67,77093,up,994,1,
661427_260413_160726.csv,Microsoft Edge,146.0.0.0,1280,800,Windows,en-US,2026-04-13_16:04:28,2026-04-13_12:04:28,2026-04-13_14:46:24,https://www.testable.org/experiment/20534/661427/start,178.396,178396,2.9732,31,test,GREEN,blue,up,critical,incongruent,,word,800,left up right,1,,,,,800,48,16.66,78655,up,772,1,
661427_260413_160726.csv,Microsoft Edge,146.0.0.0,1280,800,Windows,en-US,2026-04-13_16:04:28,2026-04-13_12:04:28,2026-04-13_14:46:24,https://www.testable.org/experiment/20534/661427/start,178.396,178396,2.9732,15,test,BLUE,blue,up,critical,congruent,,word,800,left up right,1,,,,,800,48,16.66,79926,up,478,1,
661427_260413_160726.csv,Microsoft Edge,146.0.0.0,1280,800,Windows,en-US,2026-04-13_16:04:28,2026-04-13_12:04:28,2026-04-13_14:46:24,https://www.testable.org/experiment/20534/661427/start,178.396,178396,2.9732,12,test,RED,red,left,critical,congruent,,word,800,left up right,1,,,,,800,48,16.66,81154,left,439,1,
661427_260413_160726.csv,Microsoft Edge,146.0.0.0,1280,800,Windows,en-US,2026-04-13_16:04:28,2026-04-13_12:04:28,2026-04-13_14:46:24,https://www.testable.org/experiment/20534/661427/start,178.396,178396,2.9732,28,test,BLUE,red,left,critical,incongruent,,word,800,left up right,1,,,,,800,48,16.67,82712,left,764,1,
661427_260413_160726.csv,Microsoft Edge,146.0.0.0,1280,800,Windows,en-US,2026-04-13_16:04:28,2026-04-13_12:04:28,2026-04-13_14:46:24,https://www.testable.org/experiment/20534/661427/start,178.396,178396,2.9732,35,test,CAR,green,right,filler,,,word,800,left up right,1,,,,,799,48,16.64,84181,right,683,1,
661427_260413_160726.csv,Microsoft Edge,146.0.0.0,1280,800,Windows,en-US,2026-04-13_16:04:28,2026-04-13_12:04:28,2026-04-13_14:46:24,https://www.testable.org/experiment/20534/661427/start,178.396,178396,2.9732,41,test,SHOE,blue,up,filler,,,word,800,left up right,1,,,,,800,48,16.66,85667,up,702,1,
661427_260413_160726.csv,Microsoft Edge,146.0.0.0,1280,800,Windows,en-US,2026-04-13_16:04:28,2026-04-13_12:04:28,2026-04-13_14:46:24,https://www.testable.org/experiment/20534/661427/start,178.396,178396,2.9732,21,test,GREEN,green,right,critical,congruent,,word,800,left up right,1,,,,,799,48,16.65,87090,right,642,1,
661427_260413_160726.csv,Microsoft Edge,146.0.0.0,1280,800,Windows,en-US,2026-04-13_16:04:28,2026-04-13_12:04:28,2026-04-13_14:46:24,https://www.testable.org/experiment/20534/661427/start,178.396,178396,2.9732,11,test,RED,red,left,critical,congruent,,word,800,left up right,1,,,,,801,48,16.69,88436,left,553,1,
661427_260413_160726.csv,Microsoft Edge,146.0.0.0,1280,800,Windows,en-US,2026-04-13_16:04:28,2026-04-13_12:04:28,2026-04-13_14:46:24,https://www.testable.org/experiment/20534/661427/start,178.396,178396,2.9732,19,test,GREEN,green,right,critical,congruent,,word,800,left up right,1,,,,,800,48,16.67,89858,right,626,1,
661427_260413_160726.csv,Microsoft Edge,146.0.0.0,1280,800,Windows,en-US,2026-04-13_16:04:28,2026-04-13_12:04:28,2026-04-13_14:46:24,https://www.testable.org/experiment/20534/661427/start,178.396,178396,2.9732,13,test,RED,red,left,critical,congruent,,word,800,left up right,1,,,,,800,48,16.66,91380,left,732,1,
661427_260413_160726.csv,Microsoft Edge,146.0.0.0,1280,800,Windows,en-US,2026-04-13_16:04:28,2026-04-13_12:04:28,2026-04-13_14:46:24,https://www.testable.org/experiment/20534/661427/start,178.396,178396,2.9732,29,test,BLUE,green,right,critical,incongruent,,word,800,left up right,1,,,,,800,48,16.67,93197,right,1014,1,
661427_260413_160726.csv,Microsoft Edge,146.0.0.0,1280,800,Windows,en-US,2026-04-13_16:04:28,2026-04-13_12:04:28,2026-04-13_14:46:24,https://www.testable.org/experiment/20534/661427/start,178.396,178396,2.9732,38,test,SHOE,blue,up,filler,,,word,800,left up right,1,,,,,800,48,16.66,94413,up,431,1,
661427_260413_160726.csv,Microsoft Edge,146.0.0.0,1280,800,Windows,en-US,2026-04-13_16:04:28,2026-04-13_12:04:28,2026-04-13_14:46:24,https://www.testable.org/experiment/20534/661427/start,178.396,178396,2.9732,36,test,CAR,blue,up,filler,,,word,800,left up right,1,,,,,800,48,16.67,95834,up,619,1,
661427_260413_160726.csv,Microsoft Edge,146.0.0.0,1280,800,Windows,en-US,2026-04-13_16:04:28,2026-04-13_12:04:28,2026-04-13_14:46:24,https://www.testable.org/experiment/20534/661427/start,178.396,178396,2.9732,17,test,BLUE,blue,up,critical,congruent,,word,800,left up right,1,,,,,800,48,16.66,97109,up,478,1,
661427_260413_160726.csv,Microsoft Edge,146.0.0.0,1280,800,Windows,en-US,2026-04-13_16:04:28,2026-04-13_12:04:28,2026-04-13_14:46:24,https://www.testable.org/experiment/20534/661427/start,178.396,178396,2.9732,22,test,RED,green,right,critical,incongruent,,word,800,left up right,1,,,,,800,48,16.68,98653,right,754,1,
661427_260413_160726.csv,Microsoft Edge,146.0.0.0,1280,800,Windows,en-US,2026-04-13_16:04:28,2026-04-13_12:04:28,2026-04-13_14:46:24,https://www.testable.org/experiment/20534/661427/start,178.396,178396,2.9732,18,test,GREEN,green,right,critical,congruent,,word,800,left up right,1,,,,,800,48,16.67,100053,right,603,1,
661427_260413_160726.csv,Microsoft Edge,146.0.0.0,1280,800,Windows,en-US,2026-04-13_16:04:28,2026-04-13_12:04:28,2026-04-13_14:46:24,https://www.testable.org/experiment/20534/661427/start,178.396,178396,2.9732,32,test,GREEN,red,left,critical,incongruent,,word,800,left up right,1,,,,,800,48,16.66,101366,left,518,1,
661427_260413_160726.csv,Microsoft Edge,146.0.0.0,1280,800,Windows,en-US,2026-04-13_16:04:28,2026-04-13_12:04:28,2026-04-13_14:46:24,https://www.testable.org/experiment/20534/661427/start,178.396,178396,2.9732,43,test,HOUSE,blue,up,filler,,,word,800,left up right,1,,,,,800,48,16.67,102673,up,506,1,
661427_260413_160726.csv,Microsoft Edge,146.0.0.0,1280,800,Windows,en-US,2026-04-13_16:04:28,2026-04-13_12:04:28,2026-04-13_14:46:24,https://www.testable.org/experiment/20534/661427/start,178.396,178396,2.9732,26,test,BLUE,red,left,critical,incongruent,,word,800,left up right,1,,,,,799,48,16.64,104291,left,827,1,
661427_260413_160726.csv,Microsoft Edge,146.0.0.0,1280,800,Windows,en-US,2026-04-13_16:04:28,2026-04-13_12:04:28,2026-04-13_14:46:24,https://www.testable.org/experiment/20534/661427/start,178.396,178396,2.9732,24,test,RED,green,right,critical,incongruent,,word,800,left up right,1,,,,,800,48,16.66,105808,right,726,1,
661427_260413_160726.csv,Microsoft Edge,146.0.0.0,1280,800,Windows,en-US,2026-04-13_16:04:28,2026-04-13_12:04:28,2026-04-13_14:46:24,https://www.testable.org/experiment/20534/661427/start,178.396,178396,2.9732,45,test,HOUSE,green,right,filler,,,word,800,left up right,1,,,,,800,48,16.67,107110,right,512,1,
661427_260413_160726.csv,Microsoft Edge,146.0.0.0,1280,800,Windows,en-US,2026-04-13_16:04:28,2026-04-13_12:04:28,2026-04-13_14:46:24,https://www.testable.org/experiment/20534/661427/start,178.396,178396,2.9732,70,test,CAR,red,left,filler,,,word,800,left up right,2,,,,,800,48,16.66,108377,left,479,1,
661427_260413_160726.csv,Microsoft Edge,146.0.0.0,1280,800,Windows,en-US,2026-04-13_16:04:28,2026-04-13_12:04:28,2026-04-13_14:46:24,https://www.testable.org/experiment/20534/661427/start,178.396,178396,2.9732,81,test,HOUSE,green,right,filler,,,word,800,left up right,2,,,,,800,48,16.67,109852,right,687,1,
661427_260413_160726.csv,Microsoft Edge,146.0.0.0,1280,800,Windows,en-US,2026-04-13_16:04:28,2026-04-13_12:04:28,2026-04-13_14:46:24,https://www.testable.org/experiment/20534/661427/start,178.396,178396,2.9732,50,test,BLUE,blue,up,critical,congruent,,word,800,left up right,2,,,,,799,48,16.65,111099,up,450,1,
661427_260413_160726.csv,Microsoft Edge,146.0.0.0,1280,800,Windows,en-US,2026-04-13_16:04:28,2026-04-13_12:04:28,2026-04-13_14:46:24,https://www.testable.org/experiment/20534/661427/start,178.396,178396,2.9732,80,test,HOUSE,red,left,filler,,,word,800,left up right,2,,,,,800,48,16.67,112447,left,550,1,
661427_260413_160726.csv,Microsoft Edge,146.0.0.0,1280,800,Windows,en-US,2026-04-13_16:04:28,2026-04-13_12:04:28,2026-04-13_14:46:24,https://www.testable.org/experiment/20534/661427/start,178.396,178396,2.9732,49,test,RED,red,left,critical,congruent,,word,800,left up right,2,,,,,800,48,16.67,113775,left,525,1,
661427_260413_160726.csv,Microsoft Edge,146.0.0.0,1280,800,Windows,en-US,2026-04-13_16:04:28,2026-04-13_12:04:28,2026-04-13_14:46:24,https://www.testable.org/experiment/20534/661427/start,178.396,178396,2.9732,79,test,HOUSE,blue,up,filler,,,word,800,left up right,2,,,,,800,48,16.66,115884,up,1319,1,
661427_260413_160726.csv,Microsoft Edge,146.0.0.0,1280,800,Windows,en-US,2026-04-13_16:04:28,2026-04-13_12:04:28,2026-04-13_14:46:24,https://www.testable.org/experiment/20534/661427/start,178.396,178396,2.9732,62,test,BLUE,red,left,critical,incongruent,,word,800,left up right,2,,,,,800,48,16.66,117368,left,686,1,
661427_260413_160726.csv,Microsoft Edge,146.0.0.0,1280,800,Windows,en-US,2026-04-13_16:04:28,2026-04-13_12:04:28,2026-04-13_14:46:24,https://www.testable.org/experiment/20534/661427/start,178.396,178396,2.9732,65,test,BLUE,green,right,critical,incongruent,,word,800,left up right,2,,,,,800,48,16.67,118584,right,418,1,
661427_260413_160726.csv,Microsoft Edge,146.0.0.0,1280,800,Windows,en-US,2026-04-13_16:04:28,2026-04-13_12:04:28,2026-04-13_14:46:24,https://www.testable.org/experiment/20534/661427/start,178.396,178396,2.9732,63,test,BLUE,green,right,critical,incongruent,,word,800,left up right,2,,,,,800,48,16.67,120274,right,892,1,
661427_260413_160726.csv,Microsoft Edge,146.0.0.0,1280,800,Windows,en-US,2026-04-13_16:04:28,2026-04-13_12:04:28,2026-04-13_14:46:24,https://www.testable.org/experiment/20534/661427/start,178.396,178396,2.9732,59,test,RED,blue,up,critical,incongruent,,word,800,left up right,2,,,,,800,48,16.67,121567,up,502,1,
661427_260413_160726.csv,Microsoft Edge,146.0.0.0,1280,800,Windows,en-US,2026-04-13_16:04:28,2026-04-13_12:04:28,2026-04-13_14:46:24,https://www.testable.org/experiment/20534/661427/start,178.396,178396,2.9732,53,test,BLUE,blue,up,critical,congruent,,word,800,left up right,2,,,,,801,48,16.69,123157,up,789,1,
661427_260413_160726.csv,Microsoft Edge,146.0.0.0,1280,800,Windows,en-US,2026-04-13_16:04:28,2026-04-13_12:04:28,2026-04-13_14:46:24,https://www.testable.org/experiment/20534/661427/start,178.396,178396,2.9732,71,test,CAR,green,right,filler,,,word,800,left up right,2,,,,,800,48,16.66,124434,right,487,1,
661427_260413_160726.csv,Microsoft Edge,146.0.0.0,1280,800,Windows,en-US,2026-04-13_16:04:28,2026-04-13_12:04:28,2026-04-13_14:46:24,https://www.testable.org/experiment/20534/661427/start,178.396,178396,2.9732,68,test,GREEN,red,left,critical,incongruent,,word,800,left up right,2,,,,,800,48,16.66,125928,left,696,1,
661427_260413_160726.csv,Microsoft Edge,146.0.0.0,1280,800,Windows,en-US,2026-04-13_16:04:28,2026-04-13_12:04:28,2026-04-13_14:46:24,https://www.testable.org/experiment/20534/661427/start,178.396,178396,2.9732,55,test,GREEN,green,right,critical,congruent,,word,800,left up right,2,,,,,800,48,16.67,127538,right,823,1,
661427_260413_160726.csv,Microsoft Edge,146.0.0.0,1280,800,Windows,en-US,2026-04-13_16:04:28,2026-04-13_12:04:28,2026-04-13_14:46:24,https://www.testable.org/experiment/20534/661427/start,178.396,178396,2.9732,56,test,GREEN,green,right,critical,congruent,,word,800,left up right,2,,,,,800,48,16.68,129119,right,788,1,
661427_260413_160726.csv,Microsoft Edge,146.0.0.0,1280,800,Windows,en-US,2026-04-13_16:04:28,2026-04-13_12:04:28,2026-04-13_14:46:24,https://www.testable.org/experiment/20534/661427/start,178.396,178396,2.9732,57,test,GREEN,green,right,critical,congruent,,word,800,left up right,2,,,,,800,48,16.66,130585,right,671,1,
661427_260413_160726.csv,Microsoft Edge,146.0.0.0,1280,800,Windows,en-US,2026-04-13_16:04:28,2026-04-13_12:04:28,2026-04-13_14:46:24,https://www.testable.org/experiment/20534/661427/start,178.396,178396,2.9732,47,test,RED,red,left,critical,congruent,,word,800,left up right,2,,,,,800,48,16.66,131998,left,617,1,
661427_260413_160726.csv,Microsoft Edge,146.0.0.0,1280,800,Windows,en-US,2026-04-13_16:04:28,2026-04-13_12:04:28,2026-04-13_14:46:24,https://www.testable.org/experiment/20534/661427/start,178.396,178396,2.9732,64,test,BLUE,red,left,critical,incongruent,,word,800,left up right,2,,,,,800,48,16.67,133989,left,1191,1,
661427_260413_160726.csv,Microsoft Edge,146.0.0.0,1280,800,Windows,en-US,2026-04-13_16:04:28,2026-04-13_12:04:28,2026-04-13_14:46:24,https://www.testable.org/experiment/20534/661427/start,178.396,178396,2.9732,48,test,RED,red,left,critical,congruent,,word,800,left up right,2,,,,,800,48,16.67,135252,left,470,1,
661427_260413_160726.csv,Microsoft Edge,146.0.0.0,1280,800,Windows,en-US,2026-04-13_16:04:28,2026-04-13_12:04:28,2026-04-13_14:46:24,https://www.testable.org/experiment/20534/661427/start,178.396,178396,2.9732,51,test,BLUE,blue,up,critical,congruent,,word,800,left up right,2,,,,,800,48,16.66,136498,up,451,1,
661427_260413_160726.csv,Microsoft Edge,146.0.0.0,1280,800,Windows,en-US,2026-04-13_16:04:28,2026-04-13_12:04:28,2026-04-13_14:46:24,https://www.testable.org/experiment/20534/661427/start,178.396,178396,2.9732,73,test,CAR,red,left,filler,,,word,800,left up right,2,,,,,800,48,16.67,137770,left,473,1,
661427_260413_160726.csv,Microsoft Edge,146.0.0.0,1280,800,Windows,en-US,2026-04-13_16:04:28,2026-04-13_12:04:28,2026-04-13_14:46:24,https://www.testable.org/experiment/20534/661427/start,178.396,178396,2.9732,46,test,RED,red,left,critical,congruent,,word,800,left up right,2,,,,,800,48,16.66,138983,left,420,1,
661427_260413_160726.csv,Microsoft Edge,146.0.0.0,1280,800,Windows,en-US,2026-04-13_16:04:28,2026-04-13_12:04:28,2026-04-13_14:46:24,https://www.testable.org/experiment/20534/661427/start,178.396,178396,2.9732,60,test,RED,green,right,critical,incongruent,,word,800,left up right,2,,,,,800,48,16.67,140489,right,710,1,
661427_260413_160726.csv,Microsoft Edge,146.0.0.0,1280,800,Windows,en-US,2026-04-13_16:04:28,2026-04-13_12:04:28,2026-04-13_14:46:24,https://www.testable.org/experiment/20534/661427/start,178.396,178396,2.9732,66,test,GREEN,red,left,critical,incongruent,,word,800,left up right,2,,,,,800,48,16.67,142305,left,1025,1,
661427_260413_160726.csv,Microsoft Edge,146.0.0.0,1280,800,Windows,en-US,2026-04-13_16:04:28,2026-04-13_12:04:28,2026-04-13_14:46:24,https://www.testable.org/experiment/20534/661427/start,178.396,178396,2.9732,61,test,RED,blue,up,critical,incongruent,,word,800,left up right,2,,,,,800,48,16.66,144373,up,1275,1,
661427_260413_160726.csv,Microsoft Edge,146.0.0.0,1280,800,Windows,en-US,2026-04-13_16:04:28,2026-04-13_12:04:28,2026-04-13_14:46:24,https://www.testable.org/experiment/20534/661427/start,178.396,178396,2.9732,54,test,GREEN,green,right,critical,congruent,,word,800,left up right,2,,,,,800,48,16.67,146698,right,1535,1,
661427_260413_160726.csv,Microsoft Edge,146.0.0.0,1280,800,Windows,en-US,2026-04-13_16:04:28,2026-04-13_12:04:28,2026-04-13_14:46:24,https://www.testable.org/experiment/20534/661427/start,178.396,178396,2.9732,52,test,BLUE,blue,up,critical,congruent,,word,800,left up right,2,,,,,800,48,16.67,149225,up,1728,1,
661427_260413_160726.csv,Microsoft Edge,146.0.0.0,1280,800,Windows,en-US,2026-04-13_16:04:28,2026-04-13_12:04:28,2026-04-13_14:46:24,https://www.testable.org/experiment/20534/661427/start,178.396,178396,2.9732,77,test,SHOE,blue,up,filler,,,word,800,left up right,2,,,,,801,48,16.68,150463,up,449,1,
661427_260413_160726.csv,Microsoft Edge,146.0.0.0,1280,800,Windows,en-US,2026-04-13_16:04:28,2026-04-13_12:04:28,2026-04-13_14:46:24,https://www.testable.org/experiment/20534/661427/start,178.396,178396,2.9732,72,test,CAR,blue,up,filler,,,word,800,left up right,2,,,,,800,48,16.67,151653,up,390,1,
661427_260413_160726.csv,Microsoft Edge,146.0.0.0,1280,800,Windows,en-US,2026-04-13_16:04:28,2026-04-13_12:04:28,2026-04-13_14:46:24,https://www.testable.org/experiment/20534/661427/start,178.396,178396,2.9732,78,test,HOUSE,green,right,filler,,,word,800,left up right,2,,,,,800,48,16.67,152972,right,526,1,
661427_260413_160726.csv,Microsoft Edge,146.0.0.0,1280,800,Windows,en-US,2026-04-13_16:04:28,2026-04-13_12:04:28,2026-04-13_14:46:24,https://www.testable.org/experiment/20534/661427/start,178.396,178396,2.9732,69,test,GREEN,blue,up,critical,incongruent,,word,800,left up right,2,,,,,800,48,16.66,154984,up,1221,1,
661427_260413_160726.csv,Microsoft Edge,146.0.0.0,1280,800,Windows,en-US,2026-04-13_16:04:28,2026-04-13_12:04:28,2026-04-13_14:46:24,https://www.testable.org/experiment/20534/661427/start,178.396,178396,2.9732,75,test,SHOE,red,left,filler,,,word,800,left up right,2,,,,,800,48,16.67,156358,left,577,1,
661427_260413_160726.csv,Microsoft Edge,146.0.0.0,1280,800,Windows,en-US,2026-04-13_16:04:28,2026-04-13_12:04:28,2026-04-13_14:46:24,https://www.testable.org/experiment/20534/661427/start,178.396,178396,2.9732,67,test,GREEN,blue,up,critical,incongruent,,word,800,left up right,2,,,,,800,48,16.66,158058,up,905,1,
661427_260413_160726.csv,Microsoft Edge,146.0.0.0,1280,800,Windows,en-US,2026-04-13_16:04:28,2026-04-13_12:04:28,2026-04-13_14:46:24,https://www.testable.org/experiment/20534/661427/start,178.396,178396,2.9732,74,test,SHOE,blue,up,filler,,,word,800,left up right,2,,,,,801,48,16.68,159348,up,501,1,
661427_260413_160726.csv,Microsoft Edge,146.0.0.0,1280,800,Windows,en-US,2026-04-13_16:04:28,2026-04-13_12:04:28,2026-04-13_14:46:24,https://www.testable.org/experiment/20534/661427/start,178.396,178396,2.9732,58,test,RED,green,right,critical,incongruent,,word,800,left up right,2,,,,,800,48,16.67,160796,right,650,1,
661427_260413_160726.csv,Microsoft Edge,146.0.0.0,1280,800,Windows,en-US,2026-04-13_16:04:28,2026-04-13_12:04:28,2026-04-13_14:46:24,https://www.testable.org/experiment/20534/661427/start,178.396,178396,2.9732,76,test,SHOE,green,right,filler,,,word,800,left up right,2,,,,,800,48,16.67,162092,right,496,1,
661427_260413_160726.csv,Microsoft Edge,146.0.0.0,1280,800,Windows,en-US,2026-04-13_16:04:28,2026-04-13_12:04:28,2026-04-13_14:46:24,https://www.testable.org/experiment/20534/661427/start,178.396,178396,2.9732,82,form,,,,,,,,,,,Is English your first language?,radio,Yes,No. My first language is:,800,,,178396,Yes,15785,0,1
661427_260413_160726.csv,Microsoft Edge,146.0.0.0,1280,800,Windows,en-US,2026-04-13_16:04:28,2026-04-13_12:04:28,2026-04-13_14:46:24,https://www.testable.org/experiment/20534/661427/start,178.396,178396,2.9732,83,form,,,,,,,,,,,How would you rate your English proficiency:,radio,Native; Advanced; Intermediate; Beginner,,800,,,178396,Native,15785,0,1
661427_260413_160726.csv,Microsoft Edge,146.0.0.0,1280,800,Windows,en-US,2026-04-13_16:04:28,2026-04-13_12:04:28,2026-04-13_14:46:24,https://www.testable.org/experiment/20534/661427/start,178.396,178396,2.9732,84,form,,,,,,,,,,,Do you currently reside in an English-speaking country?,radio,Yes; No,,800,,,178396,Yes,15785,0,1
661427_260413_184620.csv,Chrome,146.0.0.0,1440,900,MacOS,zh-CN,2026-04-13_18:43:05,2026-04-13_11:43:05,2026-04-13_14:46:24,https://www.testable.org/experiment/20534/661427/start,195.245,195245,3.254,3,test,CAR,green,right,practice,,correct: That's correct! You responded in %RT% milliseconds; incorrect: That's incorrect. You responded in %RT% milliseconds.,word,800,left up right,,,,,,801,48,16.68,27685,right,1321,1,
661427_260413_184620.csv,Chrome,146.0.0.0,1440,900,MacOS,zh-CN,2026-04-13_18:43:05,2026-04-13_11:43:05,2026-04-13_14:46:24,https://www.testable.org/experiment/20534/661427/start,195.245,195245,3.254,4,test,SHOE,blue,up,practice,,correct: That's correct! You responded in %RT% milliseconds; incorrect: That's incorrect. You responded in %RT% milliseconds.,word,800,left up right,,,,,,799,48,16.65,31459,left,1030,0,
661427_260413_184620.csv,Chrome,146.0.0.0,1440,900,MacOS,zh-CN,2026-04-13_18:43:05,2026-04-13_11:43:05,2026-04-13_14:46:24,https://www.testable.org/experiment/20534/661427/start,195.245,195245,3.254,5,test,RED,red,left,practice,,correct: That's correct! You responded in %RT% milliseconds; incorrect: That's incorrect. You responded in %RT% milliseconds.,word,800,left up right,,,,,,800,48,16.67,36521,left,943,1,
661427_260413_184620.csv,Chrome,146.0.0.0,1440,900,MacOS,zh-CN,2026-04-13_18:43:05,2026-04-13_11:43:05,2026-04-13_14:46:24,https://www.testable.org/experiment/20534/661427/start,195.245,195245,3.254,6,test,HOUSE,blue,up,practice,,correct: That's correct! You responded in %RT% milliseconds; incorrect: That's incorrect. You responded in %RT% milliseconds.,word,800,left up right,,,,,,799,48,16.65,39784,up,956,1,
661427_260413_184620.csv,Chrome,146.0.0.0,1440,900,MacOS,zh-CN,2026-04-13_18:43:05,2026-04-13_11:43:05,2026-04-13_14:46:24,https://www.testable.org/experiment/20534/661427/start,195.245,195245,3.254,7,test,BLUE,green,right,practice,,correct: That's correct! You responded in %RT% milliseconds; incorrect: That's incorrect. You responded in %RT% milliseconds.,word,800,left up right,,,,,,800,48,16.66,44823,right,2528,1,
661427_260413_184620.csv,Chrome,146.0.0.0,1440,900,MacOS,zh-CN,2026-04-13_18:43:05,2026-04-13_11:43:05,2026-04-13_14:46:24,https://www.testable.org/experiment/20534/661427/start,195.245,195245,3.254,8,test,GREEN,red,left,practice,,correct: That's correct! You responded in %RT% milliseconds; incorrect: That's incorrect. You responded in %RT% milliseconds.,word,800,left up right,,,,,,800,48,16.66,49290,left,2364,1,
661427_260413_184620.csv,Chrome,146.0.0.0,1440,900,MacOS,zh-CN,2026-04-13_18:43:05,2026-04-13_11:43:05,2026-04-13_14:46:24,https://www.testable.org/experiment/20534/661427/start,195.245,195245,3.254,41,test,SHOE,blue,up,filler,,,word,800,left up right,1,,,,,800,48,16.67,62789,up,1395,1,
661427_260413_184620.csv,Chrome,146.0.0.0,1440,900,MacOS,zh-CN,2026-04-13_18:43:05,2026-04-13_11:43:05,2026-04-13_14:46:24,https://www.testable.org/experiment/20534/661427/start,195.245,195245,3.254,12,test,RED,red,left,critical,congruent,,word,800,left up right,1,,,,,800,48,16.67,64725,left,1148,1,
661427_260413_184620.csv,Chrome,146.0.0.0,1440,900,MacOS,zh-CN,2026-04-13_18:43:05,2026-04-13_11:43:05,2026-04-13_14:46:24,https://www.testable.org/experiment/20534/661427/start,195.245,195245,3.254,27,test,BLUE,green,right,critical,incongruent,,word,800,left up right,1,,,,,800,48,16.68,66186,right,675,1,
661427_260413_184620.csv,Chrome,146.0.0.0,1440,900,MacOS,zh-CN,2026-04-13_18:43:05,2026-04-13_11:43:05,2026-04-13_14:46:24,https://www.testable.org/experiment/20534/661427/start,195.245,195245,3.254,28,test,BLUE,red,left,critical,incongruent,,word,800,left up right,1,,,,,800,48,16.67,68246,left,1268,1,
661427_260413_184620.csv,Chrome,146.0.0.0,1440,900,MacOS,zh-CN,2026-04-13_18:43:05,2026-04-13_11:43:05,2026-04-13_14:46:24,https://www.testable.org/experiment/20534/661427/start,195.245,195245,3.254,29,test,BLUE,green,right,critical,incongruent,,word,800,left up right,1,,,,,801,48,16.68,70033,right,989,1,
661427_260413_184620.csv,Chrome,146.0.0.0,1440,900,MacOS,zh-CN,2026-04-13_18:43:05,2026-04-13_11:43:05,2026-04-13_14:46:24,https://www.testable.org/experiment/20534/661427/start,195.245,195245,3.254,10,test,RED,red,left,critical,congruent,,word,800,left up right,1,,,,,800,48,16.67,71453,left,624,1,
661427_260413_184620.csv,Chrome,146.0.0.0,1440,900,MacOS,zh-CN,2026-04-13_18:43:05,2026-04-13_11:43:05,2026-04-13_14:46:24,https://www.testable.org/experiment/20534/661427/start,195.245,195245,3.254,34,test,CAR,red,left,filler,,,word,800,left up right,1,,,,,800,48,16.67,73056,left,811,1,
661427_260413_184620.csv,Chrome,146.0.0.0,1440,900,MacOS,zh-CN,2026-04-13_18:43:05,2026-04-13_11:43:05,2026-04-13_14:46:24,https://www.testable.org/experiment/20534/661427/start,195.245,195245,3.254,42,test,HOUSE,green,right,filler,,,word,800,left up right,1,,,,,800,48,16.67,75314,right,1469,1,
661427_260413_184620.csv,Chrome,146.0.0.0,1440,900,MacOS,zh-CN,2026-04-13_18:43:05,2026-04-13_11:43:05,2026-04-13_14:46:24,https://www.testable.org/experiment/20534/661427/start,195.245,195245,3.254,30,test,GREEN,red,left,critical,incongruent,,word,800,left up right,1,,,,,800,48,16.67,77071,left,959,1,
661427_260413_184620.csv,Chrome,146.0.0.0,1440,900,MacOS,zh-CN,2026-04-13_18:43:05,2026-04-13_11:43:05,2026-04-13_14:46:24,https://www.testable.org/experiment/20534/661427/start,195.245,195245,3.254,24,test,RED,green,right,critical,incongruent,,word,800,left up right,1,,,,,800,48,16.67,78626,right,765,1,
661427_260413_184620.csv,Chrome,146.0.0.0,1440,900,MacOS,zh-CN,2026-04-13_18:43:05,2026-04-13_11:43:05,2026-04-13_14:46:24,https://www.testable.org/experiment/20534/661427/start,195.245,195245,3.254,38,test,SHOE,blue,up,filler,,,word,800,left up right,1,,,,,800,48,16.67,80097,up,669,1,
661427_260413_184620.csv,Chrome,146.0.0.0,1440,900,MacOS,zh-CN,2026-04-13_18:43:05,2026-04-13_11:43:05,2026-04-13_14:46:24,https://www.testable.org/experiment/20534/661427/start,195.245,195245,3.254,43,test,HOUSE,blue,up,filler,,,word,800,left up right,1,,,,,800,48,16.66,81743,up,847,1,
661427_260413_184620.csv,Chrome,146.0.0.0,1440,900,MacOS,zh-CN,2026-04-13_18:43:05,2026-04-13_11:43:05,2026-04-13_14:46:24,https://www.testable.org/experiment/20534/661427/start,195.245,195245,3.254,25,test,RED,blue,up,critical,incongruent,,word,800,left up right,1,,,,,800,48,16.66,83148,up,603,1,
661427_260413_184620.csv,Chrome,146.0.0.0,1440,900,MacOS,zh-CN,2026-04-13_18:43:05,2026-04-13_11:43:05,2026-04-13_14:46:24,https://www.testable.org/experiment/20534/661427/start,195.245,195245,3.254,17,test,BLUE,blue,up,critical,congruent,,word,800,left up right,1,,,,,800,48,16.67,84507,up,562,1,
661427_260413_184620.csv,Chrome,146.0.0.0,1440,900,MacOS,zh-CN,2026-04-13_18:43:05,2026-04-13_11:43:05,2026-04-13_14:46:24,https://www.testable.org/experiment/20534/661427/start,195.245,195245,3.254,23,test,RED,blue,up,critical,incongruent,,word,800,left up right,1,,,,,800,48,16.66,85725,up,429,1,
661427_260413_184620.csv,Chrome,146.0.0.0,1440,900,MacOS,zh-CN,2026-04-13_18:43:05,2026-04-13_11:43:05,2026-04-13_14:46:24,https://www.testable.org/experiment/20534/661427/start,195.245,195245,3.254,44,test,HOUSE,red,left,filler,,,word,800,left up right,1,,,,,800,48,16.66,87242,left,730,1,
661427_260413_184620.csv,Chrome,146.0.0.0,1440,900,MacOS,zh-CN,2026-04-13_18:43:05,2026-04-13_11:43:05,2026-04-13_14:46:24,https://www.testable.org/experiment/20534/661427/start,195.245,195245,3.254,32,test,GREEN,red,left,critical,incongruent,,word,800,left up right,1,,,,,800,48,16.67,88804,left,775,1,
661427_260413_184620.csv,Chrome,146.0.0.0,1440,900,MacOS,zh-CN,2026-04-13_18:43:05,2026-04-13_11:43:05,2026-04-13_14:46:24,https://www.testable.org/experiment/20534/661427/start,195.245,195245,3.254,22,test,RED,green,right,critical,incongruent,,word,800,left up right,1,,,,,800,48,16.67,90582,right,987,1,
661427_260413_184620.csv,Chrome,146.0.0.0,1440,900,MacOS,zh-CN,2026-04-13_18:43:05,2026-04-13_11:43:05,2026-04-13_14:46:24,https://www.testable.org/experiment/20534/661427/start,195.245,195245,3.254,16,test,BLUE,blue,up,critical,congruent,,word,800,left up right,1,,,,,800,48,16.67,93130,up,1751,1,
661427_260413_184620.csv,Chrome,146.0.0.0,1440,900,MacOS,zh-CN,2026-04-13_18:43:05,2026-04-13_11:43:05,2026-04-13_14:46:24,https://www.testable.org/experiment/20534/661427/start,195.245,195245,3.254,19,test,GREEN,green,right,critical,congruent,,word,800,left up right,1,,,,,800,48,16.66,95804,right,1876,1,
661427_260413_184620.csv,Chrome,146.0.0.0,1440,900,MacOS,zh-CN,2026-04-13_18:43:05,2026-04-13_11:43:05,2026-04-13_14:46:24,https://www.testable.org/experiment/20534/661427/start,195.245,195245,3.254,21,test,GREEN,green,right,critical,congruent,,word,800,left up right,1,,,,,800,48,16.67,97248,right,653,1,
661427_260413_184620.csv,Chrome,146.0.0.0,1440,900,MacOS,zh-CN,2026-04-13_18:43:05,2026-04-13_11:43:05,2026-04-13_14:46:24,https://www.testable.org/experiment/20534/661427/start,195.245,195245,3.254,31,test,GREEN,blue,up,critical,incongruent,,word,800,left up right,1,,,,,800,48,16.67,99310,up,1265,1,
661427_260413_184620.csv,Chrome,146.0.0.0,1440,900,MacOS,zh-CN,2026-04-13_18:43:05,2026-04-13_11:43:05,2026-04-13_14:46:24,https://www.testable.org/experiment/20534/661427/start,195.245,195245,3.254,11,test,RED,red,left,critical,congruent,,word,800,left up right,1,,,,,800,48,16.67,100524,left,412,1,
661427_260413_184620.csv,Chrome,146.0.0.0,1440,900,MacOS,zh-CN,2026-04-13_18:43:05,2026-04-13_11:43:05,2026-04-13_14:46:24,https://www.testable.org/experiment/20534/661427/start,195.245,195245,3.254,13,test,RED,red,left,critical,congruent,,word,800,left up right,1,,,,,800,48,16.67,101743,left,431,1,
661427_260413_184620.csv,Chrome,146.0.0.0,1440,900,MacOS,zh-CN,2026-04-13_18:43:05,2026-04-13_11:43:05,2026-04-13_14:46:24,https://www.testable.org/experiment/20534/661427/start,195.245,195245,3.254,37,test,CAR,red,left,filler,,,word,800,left up right,1,,,,,800,48,16.67,103158,left,629,1,
661427_260413_184620.csv,Chrome,146.0.0.0,1440,900,MacOS,zh-CN,2026-04-13_18:43:05,2026-04-13_11:43:05,2026-04-13_14:46:24,https://www.testable.org/experiment/20534/661427/start,195.245,195245,3.254,20,test,GREEN,green,right,critical,congruent,,word,800,left up right,1,,,,,800,48,16.66,104549,right,603,1,
661427_260413_184620.csv,Chrome,146.0.0.0,1440,900,MacOS,zh-CN,2026-04-13_18:43:05,2026-04-13_11:43:05,2026-04-13_14:46:24,https://www.testable.org/experiment/20534/661427/start,195.245,195245,3.254,45,test,HOUSE,green,right,filler,,,word,800,left up right,1,,,,,800,48,16.67,106671,right,1325,1,
661427_260413_184620.csv,Chrome,146.0.0.0,1440,900,MacOS,zh-CN,2026-04-13_18:43:05,2026-04-13_11:43:05,2026-04-13_14:46:24,https://www.testable.org/experiment/20534/661427/start,195.245,195245,3.254,14,test,BLUE,blue,up,critical,congruent,,word,800,left up right,1,,,,,800,48,16.67,108472,up,1010,1,
661427_260413_184620.csv,Chrome,146.0.0.0,1440,900,MacOS,zh-CN,2026-04-13_18:43:05,2026-04-13_11:43:05,2026-04-13_14:46:24,https://www.testable.org/experiment/20534/661427/start,195.245,195245,3.254,18,test,GREEN,green,right,critical,congruent,,word,800,left up right,1,,,,,800,48,16.67,110079,right,817,1,
661427_260413_184620.csv,Chrome,146.0.0.0,1440,900,MacOS,zh-CN,2026-04-13_18:43:05,2026-04-13_11:43:05,2026-04-13_14:46:24,https://www.testable.org/experiment/20534/661427/start,195.245,195245,3.254,36,test,CAR,blue,up,filler,,,word,800,left up right,1,,,,,799,48,16.65,112168,up,1287,1,
661427_260413_184620.csv,Chrome,146.0.0.0,1440,900,MacOS,zh-CN,2026-04-13_18:43:05,2026-04-13_11:43:05,2026-04-13_14:46:24,https://www.testable.org/experiment/20534/661427/start,195.245,195245,3.254,40,test,SHOE,green,right,filler,,,word,800,left up right,1,,,,,800,48,16.67,115064,right,2102,1,
661427_260413_184620.csv,Chrome,146.0.0.0,1440,900,MacOS,zh-CN,2026-04-13_18:43:05,2026-04-13_11:43:05,2026-04-13_14:46:24,https://www.testable.org/experiment/20534/661427/start,195.245,195245,3.254,35,test,CAR,green,right,filler,,,word,800,left up right,1,,,,,800,48,16.67,116432,right,570,1,
661427_260413_184620.csv,Chrome,146.0.0.0,1440,900,MacOS,zh-CN,2026-04-13_18:43:05,2026-04-13_11:43:05,2026-04-13_14:46:24,https://www.testable.org/experiment/20534/661427/start,195.245,195245,3.254,33,test,GREEN,blue,up,critical,incongruent,,word,800,left up right,1,,,,,800,48,16.67,118274,up,1044,1,
661427_260413_184620.csv,Chrome,146.0.0.0,1440,900,MacOS,zh-CN,2026-04-13_18:43:05,2026-04-13_11:43:05,2026-04-13_14:46:24,https://www.testable.org/experiment/20534/661427/start,195.245,195245,3.254,39,test,SHOE,red,left,filler,,,word,800,left up right,1,,,,,800,48,16.67,119641,left,578,1,
661427_260413_184620.csv,Chrome,146.0.0.0,1440,900,MacOS,zh-CN,2026-04-13_18:43:05,2026-04-13_11:43:05,2026-04-13_14:46:24,https://www.testable.org/experiment/20534/661427/start,195.245,195245,3.254,26,test,BLUE,red,left,critical,incongruent,,word,800,left up right,1,,,,,800,48,16.67,120978,left,549,1,
661427_260413_184620.csv,Chrome,146.0.0.0,1440,900,MacOS,zh-CN,2026-04-13_18:43:05,2026-04-13_11:43:05,2026-04-13_14:46:24,https://www.testable.org/experiment/20534/661427/start,195.245,195245,3.254,15,test,BLUE,blue,up,critical,congruent,,word,800,left up right,1,,,,,800,48,16.67,122309,up,530,1,
661427_260413_184620.csv,Chrome,146.0.0.0,1440,900,MacOS,zh-CN,2026-04-13_18:43:05,2026-04-13_11:43:05,2026-04-13_14:46:24,https://www.testable.org/experiment/20534/661427/start,195.245,195245,3.254,78,test,HOUSE,green,right,filler,,,word,800,left up right,2,,,,,800,48,16.66,123811,right,714,1,
661427_260413_184620.csv,Chrome,146.0.0.0,1440,900,MacOS,zh-CN,2026-04-13_18:43:05,2026-04-13_11:43:05,2026-04-13_14:46:24,https://www.testable.org/experiment/20534/661427/start,195.245,195245,3.254,69,test,GREEN,blue,up,critical,incongruent,,word,800,left up right,2,,,,,800,48,16.67,125696,up,1083,1,
661427_260413_184620.csv,Chrome,146.0.0.0,1440,900,MacOS,zh-CN,2026-04-13_18:43:05,2026-04-13_11:43:05,2026-04-13_14:46:24,https://www.testable.org/experiment/20534/661427/start,195.245,195245,3.254,81,test,HOUSE,green,right,filler,,,word,800,left up right,2,,,,,800,48,16.67,127215,right,719,1,
661427_260413_184620.csv,Chrome,146.0.0.0,1440,900,MacOS,zh-CN,2026-04-13_18:43:05,2026-04-13_11:43:05,2026-04-13_14:46:24,https://www.testable.org/experiment/20534/661427/start,195.245,195245,3.254,49,test,RED,red,left,critical,congruent,,word,800,left up right,2,,,,,800,48,16.67,128642,left,629,1,
661427_260413_184620.csv,Chrome,146.0.0.0,1440,900,MacOS,zh-CN,2026-04-13_18:43:05,2026-04-13_11:43:05,2026-04-13_14:46:24,https://www.testable.org/experiment/20534/661427/start,195.245,195245,3.254,73,test,CAR,red,left,filler,,,word,800,left up right,2,,,,,800,48,16.67,130428,left,998,1,
661427_260413_184620.csv,Chrome,146.0.0.0,1440,900,MacOS,zh-CN,2026-04-13_18:43:05,2026-04-13_11:43:05,2026-04-13_14:46:24,https://www.testable.org/experiment/20534/661427/start,195.245,195245,3.254,50,test,BLUE,blue,up,critical,congruent,,word,800,left up right,2,,,,,800,48,16.66,131850,up,621,1,
661427_260413_184620.csv,Chrome,146.0.0.0,1440,900,MacOS,zh-CN,2026-04-13_18:43:05,2026-04-13_11:43:05,2026-04-13_14:46:24,https://www.testable.org/experiment/20534/661427/start,195.245,195245,3.254,75,test,SHOE,red,left,filler,,,word,800,left up right,2,,,,,800,48,16.67,133800,left,1155,1,
661427_260413_184620.csv,Chrome,146.0.0.0,1440,900,MacOS,zh-CN,2026-04-13_18:43:05,2026-04-13_11:43:05,2026-04-13_14:46:24,https://www.testable.org/experiment/20534/661427/start,195.245,195245,3.254,76,test,SHOE,green,right,filler,,,word,800,left up right,2,,,,,800,48,16.67,135514,right,918,1,
661427_260413_184620.csv,Chrome,146.0.0.0,1440,900,MacOS,zh-CN,2026-04-13_18:43:05,2026-04-13_11:43:05,2026-04-13_14:46:24,https://www.testable.org/experiment/20534/661427/start,195.245,195245,3.254,80,test,HOUSE,red,left,filler,,,word,800,left up right,2,,,,,800,48,16.67,136968,left,655,1,
661427_260413_184620.csv,Chrome,146.0.0.0,1440,900,MacOS,zh-CN,2026-04-13_18:43:05,2026-04-13_11:43:05,2026-04-13_14:46:24,https://www.testable.org/experiment/20534/661427/start,195.245,195245,3.254,67,test,GREEN,blue,up,critical,incongruent,,word,800,left up right,2,,,,,800,48,16.67,138233,up,469,1,
661427_260413_184620.csv,Chrome,146.0.0.0,1440,900,MacOS,zh-CN,2026-04-13_18:43:05,2026-04-13_11:43:05,2026-04-13_14:46:24,https://www.testable.org/experiment/20534/661427/start,195.245,195245,3.254,66,test,GREEN,red,left,critical,incongruent,,word,800,left up right,2,,,,,800,48,16.67,140147,left,1117,1,
661427_260413_184620.csv,Chrome,146.0.0.0,1440,900,MacOS,zh-CN,2026-04-13_18:43:05,2026-04-13_11:43:05,2026-04-13_14:46:24,https://www.testable.org/experiment/20534/661427/start,195.245,195245,3.254,47,test,RED,red,left,critical,congruent,,word,800,left up right,2,,,,,800,48,16.66,141584,left,638,1,
661427_260413_184620.csv,Chrome,146.0.0.0,1440,900,MacOS,zh-CN,2026-04-13_18:43:05,2026-04-13_11:43:05,2026-04-13_14:46:24,https://www.testable.org/experiment/20534/661427/start,195.245,195245,3.254,56,test,GREEN,green,right,critical,congruent,,word,800,left up right,2,,,,,800,48,16.67,143043,right,663,1,
661427_260413_184620.csv,Chrome,146.0.0.0,1440,900,MacOS,zh-CN,2026-04-13_18:43:05,2026-04-13_11:43:05,2026-04-13_14:46:24,https://www.testable.org/experiment/20534/661427/start,195.245,195245,3.254,70,test,CAR,red,left,filler,,,word,800,left up right,2,,,,,800,48,16.67,144900,left,1071,1,
661427_260413_184620.csv,Chrome,146.0.0.0,1440,900,MacOS,zh-CN,2026-04-13_18:43:05,2026-04-13_11:43:05,2026-04-13_14:46:24,https://www.testable.org/experiment/20534/661427/start,195.245,195245,3.254,77,test,SHOE,blue,up,filler,,,word,800,left up right,2,,,,,800,48,16.67,146283,up,587,1,
661427_260413_184620.csv,Chrome,146.0.0.0,1440,900,MacOS,zh-CN,2026-04-13_18:43:05,2026-04-13_11:43:05,2026-04-13_14:46:24,https://www.testable.org/experiment/20534/661427/start,195.245,195245,3.254,54,test,GREEN,green,right,critical,congruent,,word,800,left up right,2,,,,,800,48,16.67,147688,right,609,1,
661427_260413_184620.csv,Chrome,146.0.0.0,1440,900,MacOS,zh-CN,2026-04-13_18:43:05,2026-04-13_11:43:05,2026-04-13_14:46:24,https://www.testable.org/experiment/20534/661427/start,195.245,195245,3.254,59,test,RED,blue,up,critical,incongruent,,word,800,left up right,2,,,,,800,48,16.66,149471,up,990,1,
661427_260413_184620.csv,Chrome,146.0.0.0,1440,900,MacOS,zh-CN,2026-04-13_18:43:05,2026-04-13_11:43:05,2026-04-13_14:46:24,https://www.testable.org/experiment/20534/661427/start,195.245,195245,3.254,55,test,GREEN,green,right,critical,congruent,,word,800,left up right,2,,,,,799,48,16.65,150737,right,473,1,
661427_260413_184620.csv,Chrome,146.0.0.0,1440,900,MacOS,zh-CN,2026-04-13_18:43:05,2026-04-13_11:43:05,2026-04-13_14:46:24,https://www.testable.org/experiment/20534/661427/start,195.245,195245,3.254,48,test,RED,red,left,critical,congruent,,word,800,left up right,2,,,,,800,48,16.67,152257,left,727,1,
661427_260413_184620.csv,Chrome,146.0.0.0,1440,900,MacOS,zh-CN,2026-04-13_18:43:05,2026-04-13_11:43:05,2026-04-13_14:46:24,https://www.testable.org/experiment/20534/661427/start,195.245,195245,3.254,74,test,SHOE,blue,up,filler,,,word,800,left up right,2,,,,,800,48,16.66,153764,up,717,1,
661427_260413_184620.csv,Chrome,146.0.0.0,1440,900,MacOS,zh-CN,2026-04-13_18:43:05,2026-04-13_11:43:05,2026-04-13_14:46:24,https://www.testable.org/experiment/20534/661427/start,195.245,195245,3.254,60,test,RED,green,right,critical,incongruent,,word,800,left up right,2,,,,,800,48,16.67,155320,left,757,0,
661427_260413_184620.csv,Chrome,146.0.0.0,1440,900,MacOS,zh-CN,2026-04-13_18:43:05,2026-04-13_11:43:05,2026-04-13_14:46:24,https://www.testable.org/experiment/20534/661427/start,195.245,195245,3.254,51,test,BLUE,blue,up,critical,congruent,,word,800,left up right,2,,,,,800,48,16.67,157246,up,1132,1,
661427_260413_184620.csv,Chrome,146.0.0.0,1440,900,MacOS,zh-CN,2026-04-13_18:43:05,2026-04-13_11:43:05,2026-04-13_14:46:24,https://www.testable.org/experiment/20534/661427/start,195.245,195245,3.254,63,test,BLUE,green,right,critical,incongruent,,word,800,left up right,2,,,,,800,48,16.67,159562,right,1515,1,
661427_260413_184620.csv,Chrome,146.0.0.0,1440,900,MacOS,zh-CN,2026-04-13_18:43:05,2026-04-13_11:43:05,2026-04-13_14:46:24,https://www.testable.org/experiment/20534/661427/start,195.245,195245,3.254,79,test,HOUSE,blue,up,filler,,,word,800,left up right,2,,,,,800,48,16.66,161449,up,1086,1,
661427_260413_184620.csv,Chrome,146.0.0.0,1440,900,MacOS,zh-CN,2026-04-13_18:43:05,2026-04-13_11:43:05,2026-04-13_14:46:24,https://www.testable.org/experiment/20534/661427/start,195.245,195245,3.254,53,test,BLUE,blue,up,critical,congruent,,word,800,left up right,2,,,,,800,48,16.67,163417,up,1170,1,
661427_260413_184620.csv,Chrome,146.0.0.0,1440,900,MacOS,zh-CN,2026-04-13_18:43:05,2026-04-13_11:43:05,2026-04-13_14:46:24,https://www.testable.org/experiment/20534/661427/start,195.245,195245,3.254,46,test,RED,red,left,critical,congruent,,word,800,left up right,2,,,,,801,48,16.68,164669,left,455,1,
661427_260413_184620.csv,Chrome,146.0.0.0,1440,900,MacOS,zh-CN,2026-04-13_18:43:05,2026-04-13_11:43:05,2026-04-13_14:46:24,https://www.testable.org/experiment/20534/661427/start,195.245,195245,3.254,61,test,RED,blue,up,critical,incongruent,,word,800,left up right,2,,,,,800,48,16.67,166097,up,633,1,
661427_260413_184620.csv,Chrome,146.0.0.0,1440,900,MacOS,zh-CN,2026-04-13_18:43:05,2026-04-13_11:43:05,2026-04-13_14:46:24,https://www.testable.org/experiment/20534/661427/start,195.245,195245,3.254,58,test,RED,green,right,critical,incongruent,,word,800,left up right,2,,,,,800,48,16.67,167794,right,896,1,
661427_260413_184620.csv,Chrome,146.0.0.0,1440,900,MacOS,zh-CN,2026-04-13_18:43:05,2026-04-13_11:43:05,2026-04-13_14:46:24,https://www.testable.org/experiment/20534/661427/start,195.245,195245,3.254,62,test,BLUE,red,left,critical,incongruent,,word,800,left up right,2,,,,,800,48,16.67,170076,left,1495,1,
661427_260413_184620.csv,Chrome,146.0.0.0,1440,900,MacOS,zh-CN,2026-04-13_18:43:05,2026-04-13_11:43:05,2026-04-13_14:46:24,https://www.testable.org/experiment/20534/661427/start,195.245,195245,3.254,71,test,CAR,green,right,filler,,,word,800,left up right,2,,,,,800,48,16.67,171547,right,683,1,
661427_260413_184620.csv,Chrome,146.0.0.0,1440,900,MacOS,zh-CN,2026-04-13_18:43:05,2026-04-13_11:43:05,2026-04-13_14:46:24,https://www.testable.org/experiment/20534/661427/start,195.245,195245,3.254,72,test,CAR,blue,up,filler,,,word,800,left up right,2,,,,,800,48,16.67,172879,up,532,1,
661427_260413_184620.csv,Chrome,146.0.0.0,1440,900,MacOS,zh-CN,2026-04-13_18:43:05,2026-04-13_11:43:05,2026-04-13_14:46:24,https://www.testable.org/experiment/20534/661427/start,195.245,195245,3.254,57,test,GREEN,green,right,critical,congruent,,word,800,left up right,2,,,,,800,48,16.67,174820,right,1139,1,
661427_260413_184620.csv,Chrome,146.0.0.0,1440,900,MacOS,zh-CN,2026-04-13_18:43:05,2026-04-13_11:43:05,2026-04-13_14:46:24,https://www.testable.org/experiment/20534/661427/start,195.245,195245,3.254,65,test,BLUE,green,right,critical,incongruent,,word,800,left up right,2,,,,,800,48,16.67,176054,right,440,1,
661427_260413_184620.csv,Chrome,146.0.0.0,1440,900,MacOS,zh-CN,2026-04-13_18:43:05,2026-04-13_11:43:05,2026-04-13_14:46:24,https://www.testable.org/experiment/20534/661427/start,195.245,195245,3.254,64,test,BLUE,red,left,critical,incongruent,,word,800,left up right,2,,,,,800,48,16.66,177589,left,741,1,
661427_260413_184620.csv,Chrome,146.0.0.0,1440,900,MacOS,zh-CN,2026-04-13_18:43:05,2026-04-13_11:43:05,2026-04-13_14:46:24,https://www.testable.org/experiment/20534/661427/start,195.245,195245,3.254,68,test,GREEN,red,left,critical,incongruent,,word,800,left up right,2,,,,,800,48,16.66,179852,right,1472,0,
661427_260413_184620.csv,Chrome,146.0.0.0,1440,900,MacOS,zh-CN,2026-04-13_18:43:05,2026-04-13_11:43:05,2026-04-13_14:46:24,https://www.testable.org/experiment/20534/661427/start,195.245,195245,3.254,52,test,BLUE,blue,up,critical,congruent,,word,800,left up right,2,,,,,800,48,16.67,181762,up,1115,1,
661427_260413_184620.csv,Chrome,146.0.0.0,1440,900,MacOS,zh-CN,2026-04-13_18:43:05,2026-04-13_11:43:05,2026-04-13_14:46:24,https://www.testable.org/experiment/20534/661427/start,195.245,195245,3.254,82,form,,,,,,,,,,,Is English your first language?,radio,Yes,No. My first language is:,800,,,195245,Chinese,12955,0,2
661427_260413_184620.csv,Chrome,146.0.0.0,1440,900,MacOS,zh-CN,2026-04-13_18:43:05,2026-04-13_11:43:05,2026-04-13_14:46:24,https://www.testable.org/experiment/20534/661427/start,195.245,195245,3.254,83,form,,,,,,,,,,,How would you rate your English proficiency:,radio,Native; Advanced; Intermediate; Beginner,,800,,,195245,Advanced,12955,0,2
661427_260413_184620.csv,Chrome,146.0.0.0,1440,900,MacOS,zh-CN,2026-04-13_18:43:05,2026-04-13_11:43:05,2026-04-13_14:46:24,https://www.testable.org/experiment/20534/661427/start,195.245,195245,3.254,84,form,,,,,,,,,,,Do you currently reside in an English-speaking country?,radio,Yes; No,,800,,,195245,Yes,12955,0,1
661427_260413_192505.csv,Safari,18.6,1512,982,MacOS,en-GB,2026-04-13_19:22:39,2026-04-13_20:22:39,2026-04-13_14:46:24,https://www.testable.org/experiment/20534/661427/start,145.993,145993,2.4332,3,test,CAR,green,right,practice,,correct: That's correct! You responded in %RT% milliseconds; incorrect: That's incorrect. You responded in %RT% milliseconds.,word,800,left up right,,,,,,798,48,16.63,18089,right,852,1,
661427_260413_192505.csv,Safari,18.6,1512,982,MacOS,en-GB,2026-04-13_19:22:39,2026-04-13_20:22:39,2026-04-13_14:46:24,https://www.testable.org/experiment/20534/661427/start,145.993,145993,2.4332,4,test,SHOE,blue,up,practice,,correct: That's correct! You responded in %RT% milliseconds; incorrect: That's incorrect. You responded in %RT% milliseconds.,word,800,left up right,,,,,,800,48,16.67,20711,up,525,1,
661427_260413_192505.csv,Safari,18.6,1512,982,MacOS,en-GB,2026-04-13_19:22:39,2026-04-13_20:22:39,2026-04-13_14:46:24,https://www.testable.org/experiment/20534/661427/start,145.993,145993,2.4332,5,test,RED,red,left,practice,,correct: That's correct! You responded in %RT% milliseconds; incorrect: That's incorrect. You responded in %RT% milliseconds.,word,800,left up right,,,,,,798,48,16.63,22761,left,393,1,
661427_260413_192505.csv,Safari,18.6,1512,982,MacOS,en-GB,2026-04-13_19:22:39,2026-04-13_20:22:39,2026-04-13_14:46:24,https://www.testable.org/experiment/20534/661427/start,145.993,145993,2.4332,6,test,HOUSE,blue,up,practice,,correct: That's correct! You responded in %RT% milliseconds; incorrect: That's incorrect. You responded in %RT% milliseconds.,word,800,left up right,,,,,,800,48,16.67,24935,up,666,1,
661427_260413_192505.csv,Safari,18.6,1512,982,MacOS,en-GB,2026-04-13_19:22:39,2026-04-13_20:22:39,2026-04-13_14:46:24,https://www.testable.org/experiment/20534/661427/start,145.993,145993,2.4332,7,test,BLUE,green,right,practice,,correct: That's correct! You responded in %RT% milliseconds; incorrect: That's incorrect. You responded in %RT% milliseconds.,word,800,left up right,,,,,,797,48,16.6,26808,right,407,1,
661427_260413_192505.csv,Safari,18.6,1512,982,MacOS,en-GB,2026-04-13_19:22:39,2026-04-13_20:22:39,2026-04-13_14:46:24,https://www.testable.org/experiment/20534/661427/start,145.993,145993,2.4332,8,test,GREEN,red,left,practice,,correct: That's correct! You responded in %RT% milliseconds; incorrect: That's incorrect. You responded in %RT% milliseconds.,word,800,left up right,,,,,,800,48,16.67,28784,left,599,1,
661427_260413_192505.csv,Safari,18.6,1512,982,MacOS,en-GB,2026-04-13_19:22:39,2026-04-13_20:22:39,2026-04-13_14:46:24,https://www.testable.org/experiment/20534/661427/start,145.993,145993,2.4332,34,test,CAR,red,left,filler,,,word,800,left up right,1,,,,,794,48,16.54,33191,left,639,1,
661427_260413_192505.csv,Safari,18.6,1512,982,MacOS,en-GB,2026-04-13_19:22:39,2026-04-13_20:22:39,2026-04-13_14:46:24,https://www.testable.org/experiment/20534/661427/start,145.993,145993,2.4332,32,test,GREEN,red,left,critical,incongruent,,word,800,left up right,1,,,,,800,48,16.67,34794,left,808,1,
661427_260413_192505.csv,Safari,18.6,1512,982,MacOS,en-GB,2026-04-13_19:22:39,2026-04-13_20:22:39,2026-04-13_14:46:24,https://www.testable.org/experiment/20534/661427/start,145.993,145993,2.4332,38,test,SHOE,blue,up,filler,,,word,800,left up right,1,,,,,800,48,16.67,36042,up,457,1,
661427_260413_192505.csv,Safari,18.6,1512,982,MacOS,en-GB,2026-04-13_19:22:39,2026-04-13_20:22:39,2026-04-13_14:46:24,https://www.testable.org/experiment/20534/661427/start,145.993,145993,2.4332,25,test,RED,blue,up,critical,incongruent,,word,800,left up right,1,,,,,800,48,16.67,37518,up,682,1,
661427_260413_192505.csv,Safari,18.6,1512,982,MacOS,en-GB,2026-04-13_19:22:39,2026-04-13_20:22:39,2026-04-13_14:46:24,https://www.testable.org/experiment/20534/661427/start,145.993,145993,2.4332,40,test,SHOE,green,right,filler,,,word,800,left up right,1,,,,,800,48,16.67,39013,right,711,1,
661427_260413_192505.csv,Safari,18.6,1512,982,MacOS,en-GB,2026-04-13_19:22:39,2026-04-13_20:22:39,2026-04-13_14:46:24,https://www.testable.org/experiment/20534/661427/start,145.993,145993,2.4332,33,test,GREEN,blue,up,critical,incongruent,,word,800,left up right,1,,,,,800,48,16.67,40956,up,1154,1,
661427_260413_192505.csv,Safari,18.6,1512,982,MacOS,en-GB,2026-04-13_19:22:39,2026-04-13_20:22:39,2026-04-13_14:46:24,https://www.testable.org/experiment/20534/661427/start,145.993,145993,2.4332,29,test,BLUE,green,right,critical,incongruent,,word,800,left up right,1,,,,,800,48,16.67,43074,right,1322,1,
661427_260413_192505.csv,Safari,18.6,1512,982,MacOS,en-GB,2026-04-13_19:22:39,2026-04-13_20:22:39,2026-04-13_14:46:24,https://www.testable.org/experiment/20534/661427/start,145.993,145993,2.4332,28,test,BLUE,red,left,critical,incongruent,,word,800,left up right,1,,,,,800,48,16.67,44444,left,575,1,
661427_260413_192505.csv,Safari,18.6,1512,982,MacOS,en-GB,2026-04-13_19:22:39,2026-04-13_20:22:39,2026-04-13_14:46:24,https://www.testable.org/experiment/20534/661427/start,145.993,145993,2.4332,19,test,GREEN,green,right,critical,congruent,,word,800,left up right,1,,,,,800,48,16.67,45862,right,626,1,
661427_260413_192505.csv,Safari,18.6,1512,982,MacOS,en-GB,2026-04-13_19:22:39,2026-04-13_20:22:39,2026-04-13_14:46:24,https://www.testable.org/experiment/20534/661427/start,145.993,145993,2.4332,11,test,RED,red,left,critical,congruent,,word,800,left up right,1,,,,,800,48,16.67,47076,left,424,1,
661427_260413_192505.csv,Safari,18.6,1512,982,MacOS,en-GB,2026-04-13_19:22:39,2026-04-13_20:22:39,2026-04-13_14:46:24,https://www.testable.org/experiment/20534/661427/start,145.993,145993,2.4332,43,test,HOUSE,blue,up,filler,,,word,800,left up right,1,,,,,800,48,16.67,48284,up,415,1,
661427_260413_192505.csv,Safari,18.6,1512,982,MacOS,en-GB,2026-04-13_19:22:39,2026-04-13_20:22:39,2026-04-13_14:46:24,https://www.testable.org/experiment/20534/661427/start,145.993,145993,2.4332,17,test,BLUE,blue,up,critical,congruent,,word,800,left up right,1,,,,,800,48,16.67,49790,up,706,1,
661427_260413_192505.csv,Safari,18.6,1512,982,MacOS,en-GB,2026-04-13_19:22:39,2026-04-13_20:22:39,2026-04-13_14:46:24,https://www.testable.org/experiment/20534/661427/start,145.993,145993,2.4332,13,test,RED,red,left,critical,congruent,,word,800,left up right,1,,,,,800,48,16.67,51391,left,806,1,
661427_260413_192505.csv,Safari,18.6,1512,982,MacOS,en-GB,2026-04-13_19:22:39,2026-04-13_20:22:39,2026-04-13_14:46:24,https://www.testable.org/experiment/20534/661427/start,145.993,145993,2.4332,39,test,SHOE,red,left,filler,,,word,800,left up right,1,,,,,800,48,16.67,52793,left,608,1,
661427_260413_192505.csv,Safari,18.6,1512,982,MacOS,en-GB,2026-04-13_19:22:39,2026-04-13_20:22:39,2026-04-13_14:46:24,https://www.testable.org/experiment/20534/661427/start,145.993,145993,2.4332,27,test,BLUE,green,right,critical,incongruent,,word,800,left up right,1,,,,,800,48,16.67,54456,right,871,1,
661427_260413_192505.csv,Safari,18.6,1512,982,MacOS,en-GB,2026-04-13_19:22:39,2026-04-13_20:22:39,2026-04-13_14:46:24,https://www.testable.org/experiment/20534/661427/start,145.993,145993,2.4332,41,test,SHOE,blue,up,filler,,,word,800,left up right,1,,,,,800,48,16.67,55710,up,458,1,
661427_260413_192505.csv,Safari,18.6,1512,982,MacOS,en-GB,2026-04-13_19:22:39,2026-04-13_20:22:39,2026-04-13_14:46:24,https://www.testable.org/experiment/20534/661427/start,145.993,145993,2.4332,14,test,BLUE,blue,up,critical,congruent,,word,800,left up right,1,,,,,800,48,16.67,56979,up,477,1,
661427_260413_192505.csv,Safari,18.6,1512,982,MacOS,en-GB,2026-04-13_19:22:39,2026-04-13_20:22:39,2026-04-13_14:46:24,https://www.testable.org/experiment/20534/661427/start,145.993,145993,2.4332,30,test,GREEN,red,left,critical,incongruent,,word,800,left up right,1,,,,,800,48,16.67,58306,left,537,1,
661427_260413_192505.csv,Safari,18.6,1512,982,MacOS,en-GB,2026-04-13_19:22:39,2026-04-13_20:22:39,2026-04-13_14:46:24,https://www.testable.org/experiment/20534/661427/start,145.993,145993,2.4332,21,test,GREEN,green,right,critical,congruent,,word,800,left up right,1,,,,,800,48,16.67,59617,right,516,1,
661427_260413_192505.csv,Safari,18.6,1512,982,MacOS,en-GB,2026-04-13_19:22:39,2026-04-13_20:22:39,2026-04-13_14:46:24,https://www.testable.org/experiment/20534/661427/start,145.993,145993,2.4332,35,test,CAR,green,right,filler,,,word,800,left up right,1,,,,,799,48,16.65,61017,right,615,1,
661427_260413_192505.csv,Safari,18.6,1512,982,MacOS,en-GB,2026-04-13_19:22:39,2026-04-13_20:22:39,2026-04-13_14:46:24,https://www.testable.org/experiment/20534/661427/start,145.993,145993,2.4332,42,test,HOUSE,green,right,filler,,,word,800,left up right,1,,,,,800,48,16.67,62308,right,489,1,
661427_260413_192505.csv,Safari,18.6,1512,982,MacOS,en-GB,2026-04-13_19:22:39,2026-04-13_20:22:39,2026-04-13_14:46:24,https://www.testable.org/experiment/20534/661427/start,145.993,145993,2.4332,12,test,RED,red,left,critical,congruent,,word,800,left up right,1,,,,,799,48,16.65,63530,left,430,1,
661427_260413_192505.csv,Safari,18.6,1512,982,MacOS,en-GB,2026-04-13_19:22:39,2026-04-13_20:22:39,2026-04-13_14:46:24,https://www.testable.org/experiment/20534/661427/start,145.993,145993,2.4332,18,test,GREEN,green,right,critical,congruent,,word,800,left up right,1,,,,,800,48,16.67,64904,right,585,1,
661427_260413_192505.csv,Safari,18.6,1512,982,MacOS,en-GB,2026-04-13_19:22:39,2026-04-13_20:22:39,2026-04-13_14:46:24,https://www.testable.org/experiment/20534/661427/start,145.993,145993,2.4332,45,test,HOUSE,green,right,filler,,,word,800,left up right,1,,,,,800,48,16.67,66364,right,662,1,
661427_260413_192505.csv,Safari,18.6,1512,982,MacOS,en-GB,2026-04-13_19:22:39,2026-04-13_20:22:39,2026-04-13_14:46:24,https://www.testable.org/experiment/20534/661427/start,145.993,145993,2.4332,15,test,BLUE,blue,up,critical,congruent,,word,800,left up right,1,,,,,800,48,16.67,67828,up,676,1,
661427_260413_192505.csv,Safari,18.6,1512,982,MacOS,en-GB,2026-04-13_19:22:39,2026-04-13_20:22:39,2026-04-13_14:46:24,https://www.testable.org/experiment/20534/661427/start,145.993,145993,2.4332,36,test,CAR,blue,up,filler,,,word,800,left up right,1,,,,,800,48,16.67,69266,up,647,1,
661427_260413_192505.csv,Safari,18.6,1512,982,MacOS,en-GB,2026-04-13_19:22:39,2026-04-13_20:22:39,2026-04-13_14:46:24,https://www.testable.org/experiment/20534/661427/start,145.993,145993,2.4332,10,test,RED,red,left,critical,congruent,,word,800,left up right,1,,,,,800,48,16.67,70425,left,373,1,
661427_260413_192505.csv,Safari,18.6,1512,982,MacOS,en-GB,2026-04-13_19:22:39,2026-04-13_20:22:39,2026-04-13_14:46:24,https://www.testable.org/experiment/20534/661427/start,145.993,145993,2.4332,16,test,BLUE,blue,up,critical,congruent,,word,800,left up right,1,,,,,800,48,16.67,72022,up,803,1,
661427_260413_192505.csv,Safari,18.6,1512,982,MacOS,en-GB,2026-04-13_19:22:39,2026-04-13_20:22:39,2026-04-13_14:46:24,https://www.testable.org/experiment/20534/661427/start,145.993,145993,2.4332,26,test,BLUE,red,left,critical,incongruent,,word,800,left up right,1,,,,,800,48,16.67,73317,left,498,1,
661427_260413_192505.csv,Safari,18.6,1512,982,MacOS,en-GB,2026-04-13_19:22:39,2026-04-13_20:22:39,2026-04-13_14:46:24,https://www.testable.org/experiment/20534/661427/start,145.993,145993,2.4332,22,test,RED,green,right,critical,incongruent,,word,800,left up right,1,,,,,800,48,16.67,74619,right,502,1,
661427_260413_192505.csv,Safari,18.6,1512,982,MacOS,en-GB,2026-04-13_19:22:39,2026-04-13_20:22:39,2026-04-13_14:46:24,https://www.testable.org/experiment/20534/661427/start,145.993,145993,2.4332,23,test,RED,blue,up,critical,incongruent,,word,800,left up right,1,,,,,800,48,16.67,76067,up,648,1,
661427_260413_192505.csv,Safari,18.6,1512,982,MacOS,en-GB,2026-04-13_19:22:39,2026-04-13_20:22:39,2026-04-13_14:46:24,https://www.testable.org/experiment/20534/661427/start,145.993,145993,2.4332,37,test,CAR,red,left,filler,,,word,800,left up right,1,,,,,800,48,16.67,77290,left,422,1,
661427_260413_192505.csv,Safari,18.6,1512,982,MacOS,en-GB,2026-04-13_19:22:39,2026-04-13_20:22:39,2026-04-13_14:46:24,https://www.testable.org/experiment/20534/661427/start,145.993,145993,2.4332,20,test,GREEN,green,right,critical,congruent,,word,800,left up right,1,,,,,800,48,16.67,78448,right,364,1,
661427_260413_192505.csv,Safari,18.6,1512,982,MacOS,en-GB,2026-04-13_19:22:39,2026-04-13_20:22:39,2026-04-13_14:46:24,https://www.testable.org/experiment/20534/661427/start,145.993,145993,2.4332,44,test,HOUSE,red,left,filler,,,word,800,left up right,1,,,,,800,48,16.67,79677,left,442,1,
661427_260413_192505.csv,Safari,18.6,1512,982,MacOS,en-GB,2026-04-13_19:22:39,2026-04-13_20:22:39,2026-04-13_14:46:24,https://www.testable.org/experiment/20534/661427/start,145.993,145993,2.4332,24,test,RED,green,right,critical,incongruent,,word,800,left up right,1,,,,,800,48,16.67,81057,right,589,1,
661427_260413_192505.csv,Safari,18.6,1512,982,MacOS,en-GB,2026-04-13_19:22:39,2026-04-13_20:22:39,2026-04-13_14:46:24,https://www.testable.org/experiment/20534/661427/start,145.993,145993,2.4332,31,test,GREEN,blue,up,critical,incongruent,,word,800,left up right,1,,,,,800,48,16.67,82294,up,442,1,
661427_260413_192505.csv,Safari,18.6,1512,982,MacOS,en-GB,2026-04-13_19:22:39,2026-04-13_20:22:39,2026-04-13_14:46:24,https://www.testable.org/experiment/20534/661427/start,145.993,145993,2.4332,58,test,RED,green,right,critical,incongruent,,word,800,left up right,2,,,,,800,48,16.67,83760,right,676,1,
661427_260413_192505.csv,Safari,18.6,1512,982,MacOS,en-GB,2026-04-13_19:22:39,2026-04-13_20:22:39,2026-04-13_14:46:24,https://www.testable.org/experiment/20534/661427/start,145.993,145993,2.4332,51,test,BLUE,blue,up,critical,congruent,,word,800,left up right,2,,,,,800,48,16.67,85566,up,1014,1,
661427_260413_192505.csv,Safari,18.6,1512,982,MacOS,en-GB,2026-04-13_19:22:39,2026-04-13_20:22:39,2026-04-13_14:46:24,https://www.testable.org/experiment/20534/661427/start,145.993,145993,2.4332,75,test,SHOE,red,left,filler,,,word,800,left up right,2,,,,,800,48,16.67,86817,left,465,1,
661427_260413_192505.csv,Safari,18.6,1512,982,MacOS,en-GB,2026-04-13_19:22:39,2026-04-13_20:22:39,2026-04-13_14:46:24,https://www.testable.org/experiment/20534/661427/start,145.993,145993,2.4332,53,test,BLUE,blue,up,critical,congruent,,word,800,left up right,2,,,,,801,48,16.69,88359,up,757,1,
661427_260413_192505.csv,Safari,18.6,1512,982,MacOS,en-GB,2026-04-13_19:22:39,2026-04-13_20:22:39,2026-04-13_14:46:24,https://www.testable.org/experiment/20534/661427/start,145.993,145993,2.4332,66,test,GREEN,red,left,critical,incongruent,,word,800,left up right,2,,,,,800,48,16.67,89640,left,488,1,
661427_260413_192505.csv,Safari,18.6,1512,982,MacOS,en-GB,2026-04-13_19:22:39,2026-04-13_20:22:39,2026-04-13_14:46:24,https://www.testable.org/experiment/20534/661427/start,145.993,145993,2.4332,64,test,BLUE,red,left,critical,incongruent,,word,800,left up right,2,,,,,800,48,16.67,90865,left,430,1,
661427_260413_192505.csv,Safari,18.6,1512,982,MacOS,en-GB,2026-04-13_19:22:39,2026-04-13_20:22:39,2026-04-13_14:46:24,https://www.testable.org/experiment/20534/661427/start,145.993,145993,2.4332,62,test,BLUE,red,left,critical,incongruent,,word,800,left up right,2,,,,,801,48,16.69,92047,left,395,1,
661427_260413_192505.csv,Safari,18.6,1512,982,MacOS,en-GB,2026-04-13_19:22:39,2026-04-13_20:22:39,2026-04-13_14:46:24,https://www.testable.org/experiment/20534/661427/start,145.993,145993,2.4332,73,test,CAR,red,left,filler,,,word,800,left up right,2,,,,,800,48,16.67,93212,left,377,1,
661427_260413_192505.csv,Safari,18.6,1512,982,MacOS,en-GB,2026-04-13_19:22:39,2026-04-13_20:22:39,2026-04-13_14:46:24,https://www.testable.org/experiment/20534/661427/start,145.993,145993,2.4332,76,test,SHOE,green,right,filler,,,word,800,left up right,2,,,,,800,48,16.67,94978,right,977,1,
661427_260413_192505.csv,Safari,18.6,1512,982,MacOS,en-GB,2026-04-13_19:22:39,2026-04-13_20:22:39,2026-04-13_14:46:24,https://www.testable.org/experiment/20534/661427/start,145.993,145993,2.4332,67,test,GREEN,blue,up,critical,incongruent,,word,800,left up right,2,,,,,800,48,16.67,96222,up,453,1,
661427_260413_192505.csv,Safari,18.6,1512,982,MacOS,en-GB,2026-04-13_19:22:39,2026-04-13_20:22:39,2026-04-13_14:46:24,https://www.testable.org/experiment/20534/661427/start,145.993,145993,2.4332,48,test,RED,red,left,critical,congruent,,word,800,left up right,2,,,,,800,48,16.67,97499,left,481,1,
661427_260413_192505.csv,Safari,18.6,1512,982,MacOS,en-GB,2026-04-13_19:22:39,2026-04-13_20:22:39,2026-04-13_14:46:24,https://www.testable.org/experiment/20534/661427/start,145.993,145993,2.4332,74,test,SHOE,blue,up,filler,,,word,800,left up right,2,,,,,800,48,16.67,99037,up,752,1,
661427_260413_192505.csv,Safari,18.6,1512,982,MacOS,en-GB,2026-04-13_19:22:39,2026-04-13_20:22:39,2026-04-13_14:46:24,https://www.testable.org/experiment/20534/661427/start,145.993,145993,2.4332,63,test,BLUE,green,right,critical,incongruent,,word,800,left up right,2,,,,,800,48,16.67,100549,right,714,1,
661427_260413_192505.csv,Safari,18.6,1512,982,MacOS,en-GB,2026-04-13_19:22:39,2026-04-13_20:22:39,2026-04-13_14:46:24,https://www.testable.org/experiment/20534/661427/start,145.993,145993,2.4332,81,test,HOUSE,green,right,filler,,,word,800,left up right,2,,,,,800,48,16.67,102083,right,748,1,
661427_260413_192505.csv,Safari,18.6,1512,982,MacOS,en-GB,2026-04-13_19:22:39,2026-04-13_20:22:39,2026-04-13_14:46:24,https://www.testable.org/experiment/20534/661427/start,145.993,145993,2.4332,78,test,HOUSE,green,right,filler,,,word,800,left up right,2,,,,,800,48,16.67,103346,right,478,1,
661427_260413_192505.csv,Safari,18.6,1512,982,MacOS,en-GB,2026-04-13_19:22:39,2026-04-13_20:22:39,2026-04-13_14:46:24,https://www.testable.org/experiment/20534/661427/start,145.993,145993,2.4332,71,test,CAR,green,right,filler,,,word,800,left up right,2,,,,,800,48,16.67,104712,right,577,1,
661427_260413_192505.csv,Safari,18.6,1512,982,MacOS,en-GB,2026-04-13_19:22:39,2026-04-13_20:22:39,2026-04-13_14:46:24,https://www.testable.org/experiment/20534/661427/start,145.993,145993,2.4332,52,test,BLUE,blue,up,critical,congruent,,word,800,left up right,2,,,,,799,48,16.65,106369,up,868,1,
661427_260413_192505.csv,Safari,18.6,1512,982,MacOS,en-GB,2026-04-13_19:22:39,2026-04-13_20:22:39,2026-04-13_14:46:24,https://www.testable.org/experiment/20534/661427/start,145.993,145993,2.4332,65,test,BLUE,green,right,critical,incongruent,,word,800,left up right,2,,,,,800,48,16.67,107712,right,544,1,
661427_260413_192505.csv,Safari,18.6,1512,982,MacOS,en-GB,2026-04-13_19:22:39,2026-04-13_20:22:39,2026-04-13_14:46:24,https://www.testable.org/experiment/20534/661427/start,145.993,145993,2.4332,55,test,GREEN,green,right,critical,congruent,,word,800,left up right,2,,,,,799,48,16.65,109233,right,732,1,
661427_260413_192505.csv,Safari,18.6,1512,982,MacOS,en-GB,2026-04-13_19:22:39,2026-04-13_20:22:39,2026-04-13_14:46:24,https://www.testable.org/experiment/20534/661427/start,145.993,145993,2.4332,50,test,BLUE,blue,up,critical,congruent,,word,800,left up right,2,,,,,800,48,16.67,110892,up,874,1,
661427_260413_192505.csv,Safari,18.6,1512,982,MacOS,en-GB,2026-04-13_19:22:39,2026-04-13_20:22:39,2026-04-13_14:46:24,https://www.testable.org/experiment/20534/661427/start,145.993,145993,2.4332,49,test,RED,red,left,critical,congruent,,word,800,left up right,2,,,,,800,48,16.67,112074,left,389,1,
661427_260413_192505.csv,Safari,18.6,1512,982,MacOS,en-GB,2026-04-13_19:22:39,2026-04-13_20:22:39,2026-04-13_14:46:24,https://www.testable.org/experiment/20534/661427/start,145.993,145993,2.4332,54,test,GREEN,green,right,critical,congruent,,word,800,left up right,2,,,,,800,48,16.67,113408,right,539,1,
661427_260413_192505.csv,Safari,18.6,1512,982,MacOS,en-GB,2026-04-13_19:22:39,2026-04-13_20:22:39,2026-04-13_14:46:24,https://www.testable.org/experiment/20534/661427/start,145.993,145993,2.4332,68,test,GREEN,red,left,critical,incongruent,,word,800,left up right,2,,,,,800,48,16.67,114817,left,615,1,
661427_260413_192505.csv,Safari,18.6,1512,982,MacOS,en-GB,2026-04-13_19:22:39,2026-04-13_20:22:39,2026-04-13_14:46:24,https://www.testable.org/experiment/20534/661427/start,145.993,145993,2.4332,70,test,CAR,red,left,filler,,,word,800,left up right,2,,,,,800,48,16.67,116067,left,449,1,
661427_260413_192505.csv,Safari,18.6,1512,982,MacOS,en-GB,2026-04-13_19:22:39,2026-04-13_20:22:39,2026-04-13_14:46:24,https://www.testable.org/experiment/20534/661427/start,145.993,145993,2.4332,47,test,RED,red,left,critical,congruent,,word,800,left up right,2,,,,,800,48,16.67,117270,left,402,1,
661427_260413_192505.csv,Safari,18.6,1512,982,MacOS,en-GB,2026-04-13_19:22:39,2026-04-13_20:22:39,2026-04-13_14:46:24,https://www.testable.org/experiment/20534/661427/start,145.993,145993,2.4332,57,test,GREEN,green,right,critical,congruent,,word,800,left up right,2,,,,,800,48,16.67,118900,right,832,1,
661427_260413_192505.csv,Safari,18.6,1512,982,MacOS,en-GB,2026-04-13_19:22:39,2026-04-13_20:22:39,2026-04-13_14:46:24,https://www.testable.org/experiment/20534/661427/start,145.993,145993,2.4332,59,test,RED,blue,up,critical,incongruent,,word,800,left up right,2,,,,,800,48,16.67,120112,up,427,1,
661427_260413_192505.csv,Safari,18.6,1512,982,MacOS,en-GB,2026-04-13_19:22:39,2026-04-13_20:22:39,2026-04-13_14:46:24,https://www.testable.org/experiment/20534/661427/start,145.993,145993,2.4332,80,test,HOUSE,red,left,filler,,,word,800,left up right,2,,,,,800,48,16.67,121602,left,700,1,
661427_260413_192505.csv,Safari,18.6,1512,982,MacOS,en-GB,2026-04-13_19:22:39,2026-04-13_20:22:39,2026-04-13_14:46:24,https://www.testable.org/experiment/20534/661427/start,145.993,145993,2.4332,46,test,RED,red,left,critical,congruent,,word,800,left up right,2,,,,,801,48,16.69,122852,left,451,1,
661427_260413_192505.csv,Safari,18.6,1512,982,MacOS,en-GB,2026-04-13_19:22:39,2026-04-13_20:22:39,2026-04-13_14:46:24,https://www.testable.org/experiment/20534/661427/start,145.993,145993,2.4332,79,test,HOUSE,blue,up,filler,,,word,800,left up right,2,,,,,800,48,16.67,124556,up,904,1,
661427_260413_192505.csv,Safari,18.6,1512,982,MacOS,en-GB,2026-04-13_19:22:39,2026-04-13_20:22:39,2026-04-13_14:46:24,https://www.testable.org/experiment/20534/661427/start,145.993,145993,2.4332,56,test,GREEN,green,right,critical,congruent,,word,800,left up right,2,,,,,800,48,16.67,125889,right,537,1,
661427_260413_192505.csv,Safari,18.6,1512,982,MacOS,en-GB,2026-04-13_19:22:39,2026-04-13_20:22:39,2026-04-13_14:46:24,https://www.testable.org/experiment/20534/661427/start,145.993,145993,2.4332,77,test,SHOE,blue,up,filler,,,word,800,left up right,2,,,,,800,48,16.67,127886,up,1201,1,
661427_260413_192505.csv,Safari,18.6,1512,982,MacOS,en-GB,2026-04-13_19:22:39,2026-04-13_20:22:39,2026-04-13_14:46:24,https://www.testable.org/experiment/20534/661427/start,145.993,145993,2.4332,69,test,GREEN,blue,up,critical,incongruent,,word,800,left up right,2,,,,,800,48,16.67,129123,up,438,1,
661427_260413_192505.csv,Safari,18.6,1512,982,MacOS,en-GB,2026-04-13_19:22:39,2026-04-13_20:22:39,2026-04-13_14:46:24,https://www.testable.org/experiment/20534/661427/start,145.993,145993,2.4332,72,test,CAR,blue,up,filler,,,word,800,left up right,2,,,,,800,48,16.67,130332,up,414,1,
661427_260413_192505.csv,Safari,18.6,1512,982,MacOS,en-GB,2026-04-13_19:22:39,2026-04-13_20:22:39,2026-04-13_14:46:24,https://www.testable.org/experiment/20534/661427/start,145.993,145993,2.4332,61,test,RED,blue,up,critical,incongruent,,word,800,left up right,2,,,,,800,48,16.67,131546,up,428,1,
661427_260413_192505.csv,Safari,18.6,1512,982,MacOS,en-GB,2026-04-13_19:22:39,2026-04-13_20:22:39,2026-04-13_14:46:24,https://www.testable.org/experiment/20534/661427/start,145.993,145993,2.4332,60,test,RED,green,right,critical,incongruent,,word,800,left up right,2,,,,,800,48,16.67,132945,right,610,1,
661427_260413_192505.csv,Safari,18.6,1512,982,MacOS,en-GB,2026-04-13_19:22:39,2026-04-13_20:22:39,2026-04-13_14:46:24,https://www.testable.org/experiment/20534/661427/start,145.993,145993,2.4332,82,form,,,,,,,,,,,Is English your first language?,radio,Yes,No. My first language is:,800,,,145993,Putonghua,12536,0,2
661427_260413_192505.csv,Safari,18.6,1512,982,MacOS,en-GB,2026-04-13_19:22:39,2026-04-13_20:22:39,2026-04-13_14:46:24,https://www.testable.org/experiment/20534/661427/start,145.993,145993,2.4332,83,form,,,,,,,,,,,How would you rate your English proficiency:,radio,Native; Advanced; Intermediate; Beginner,,800,,,145993,Advanced,12536,0,2
661427_260413_192505.csv,Safari,18.6,1512,982,MacOS,en-GB,2026-04-13_19:22:39,2026-04-13_20:22:39,2026-04-13_14:46:24,https://www.testable.org/experiment/20534/661427/start,145.993,145993,2.4332,84,form,,,,,,,,,,,Do you currently reside in an English-speaking country?,radio,Yes; No,,800,,,145993,Yes,12536,0,1
661427_260413_210023.csv,Chrome,146.0.0.0,1280,832,MacOS,en-GB,2026-04-13_20:54:22,2026-04-13_13:54:22,2026-04-13_14:46:24,https://www.testable.org/experiment/20534/661427/start,361.901,361901,6.0316,3,test,CAR,green,right,practice,,correct: That's correct! You responded in %RT% milliseconds; incorrect: That's incorrect. You responded in %RT% milliseconds.,word,800,left up right,,,,,,800,48,16.67,92203,right,4006,1,
661427_260413_210023.csv,Chrome,146.0.0.0,1280,832,MacOS,en-GB,2026-04-13_20:54:22,2026-04-13_13:54:22,2026-04-13_14:46:24,https://www.testable.org/experiment/20534/661427/start,361.901,361901,6.0316,4,test,SHOE,blue,up,practice,,correct: That's correct! You responded in %RT% milliseconds; incorrect: That's incorrect. You responded in %RT% milliseconds.,word,800,left up right,,,,,,800,48,16.67,96082,up,1371,1,
661427_260413_210023.csv,Chrome,146.0.0.0,1280,832,MacOS,en-GB,2026-04-13_20:54:22,2026-04-13_13:54:22,2026-04-13_14:46:24,https://www.testable.org/experiment/20534/661427/start,361.901,361901,6.0316,5,test,RED,red,left,practice,,correct: That's correct! You responded in %RT% milliseconds; incorrect: That's incorrect. You responded in %RT% milliseconds.,word,800,left up right,,,,,,800,48,16.66,98497,left,469,1,
661427_260413_210023.csv,Chrome,146.0.0.0,1280,832,MacOS,en-GB,2026-04-13_20:54:22,2026-04-13_13:54:22,2026-04-13_14:46:24,https://www.testable.org/experiment/20534/661427/start,361.901,361901,6.0316,6,test,HOUSE,blue,up,practice,,correct: That's correct! You responded in %RT% milliseconds; incorrect: That's incorrect. You responded in %RT% milliseconds.,word,800,left up right,,,,,,800,48,16.67,101452,up,1141,1,
661427_260413_210023.csv,Chrome,146.0.0.0,1280,832,MacOS,en-GB,2026-04-13_20:54:22,2026-04-13_13:54:22,2026-04-13_14:46:24,https://www.testable.org/experiment/20534/661427/start,361.901,361901,6.0316,7,test,BLUE,green,right,practice,,correct: That's correct! You responded in %RT% milliseconds; incorrect: That's incorrect. You responded in %RT% milliseconds.,word,800,left up right,,,,,,800,48,16.66,104635,right,1058,1,
661427_260413_210023.csv,Chrome,146.0.0.0,1280,832,MacOS,en-GB,2026-04-13_20:54:22,2026-04-13_13:54:22,2026-04-13_14:46:24,https://www.testable.org/experiment/20534/661427/start,361.901,361901,6.0316,8,test,GREEN,red,left,practice,,correct: That's correct! You responded in %RT% milliseconds; incorrect: That's incorrect. You responded in %RT% milliseconds.,word,800,left up right,,,,,,800,48,16.67,107954,left,1627,1,
661427_260413_210023.csv,Chrome,146.0.0.0,1280,832,MacOS,en-GB,2026-04-13_20:54:22,2026-04-13_13:54:22,2026-04-13_14:46:24,https://www.testable.org/experiment/20534/661427/start,361.901,361901,6.0316,26,test,BLUE,red,left,critical,incongruent,,word,800,left up right,1,,,,,800,48,16.67,134919,left,625,1,
661427_260413_210023.csv,Chrome,146.0.0.0,1280,832,MacOS,en-GB,2026-04-13_20:54:22,2026-04-13_13:54:22,2026-04-13_14:46:24,https://www.testable.org/experiment/20534/661427/start,361.901,361901,6.0316,14,test,BLUE,blue,up,critical,congruent,,word,800,left up right,1,,,,,800,48,16.67,137145,up,1434,1,
661427_260413_210023.csv,Chrome,146.0.0.0,1280,832,MacOS,en-GB,2026-04-13_20:54:22,2026-04-13_13:54:22,2026-04-13_14:46:24,https://www.testable.org/experiment/20534/661427/start,361.901,361901,6.0316,30,test,GREEN,red,left,critical,incongruent,,word,800,left up right,1,,,,,800,48,16.67,138727,left,784,1,
661427_260413_210023.csv,Chrome,146.0.0.0,1280,832,MacOS,en-GB,2026-04-13_20:54:22,2026-04-13_13:54:22,2026-04-13_14:46:24,https://www.testable.org/experiment/20534/661427/start,361.901,361901,6.0316,10,test,RED,red,left,critical,congruent,,word,800,left up right,1,,,,,800,48,16.67,140319,left,792,1,
661427_260413_210023.csv,Chrome,146.0.0.0,1280,832,MacOS,en-GB,2026-04-13_20:54:22,2026-04-13_13:54:22,2026-04-13_14:46:24,https://www.testable.org/experiment/20534/661427/start,361.901,361901,6.0316,45,test,HOUSE,green,right,filler,,,word,800,left up right,1,,,,,800,48,16.66,144806,right,3695,1,
661427_260413_210023.csv,Chrome,146.0.0.0,1280,832,MacOS,en-GB,2026-04-13_20:54:22,2026-04-13_13:54:22,2026-04-13_14:46:24,https://www.testable.org/experiment/20534/661427/start,361.901,361901,6.0316,34,test,CAR,red,left,filler,,,word,800,left up right,1,,,,,800,48,16.67,146306,left,713,1,
661427_260413_210023.csv,Chrome,146.0.0.0,1280,832,MacOS,en-GB,2026-04-13_20:54:22,2026-04-13_13:54:22,2026-04-13_14:46:24,https://www.testable.org/experiment/20534/661427/start,361.901,361901,6.0316,20,test,GREEN,green,right,critical,congruent,,word,800,left up right,1,,,,,800,48,16.67,147769,right,676,1,
661427_260413_210023.csv,Chrome,146.0.0.0,1280,832,MacOS,en-GB,2026-04-13_20:54:22,2026-04-13_13:54:22,2026-04-13_14:46:24,https://www.testable.org/experiment/20534/661427/start,361.901,361901,6.0316,23,test,RED,blue,up,critical,incongruent,,word,800,left up right,1,,,,,800,48,16.66,149232,up,673,1,
661427_260413_210023.csv,Chrome,146.0.0.0,1280,832,MacOS,en-GB,2026-04-13_20:54:22,2026-04-13_13:54:22,2026-04-13_14:46:24,https://www.testable.org/experiment/20534/661427/start,361.901,361901,6.0316,31,test,GREEN,blue,up,critical,incongruent,,word,800,left up right,1,,,,,800,48,16.67,150818,up,791,1,
661427_260413_210023.csv,Chrome,146.0.0.0,1280,832,MacOS,en-GB,2026-04-13_20:54:22,2026-04-13_13:54:22,2026-04-13_14:46:24,https://www.testable.org/experiment/20534/661427/start,361.901,361901,6.0316,42,test,HOUSE,green,right,filler,,,word,800,left up right,1,,,,,800,48,16.67,152526,right,917,1,
661427_260413_210023.csv,Chrome,146.0.0.0,1280,832,MacOS,en-GB,2026-04-13_20:54:22,2026-04-13_13:54:22,2026-04-13_14:46:24,https://www.testable.org/experiment/20534/661427/start,361.901,361901,6.0316,13,test,RED,red,left,critical,congruent,,word,800,left up right,1,,,,,800,48,16.67,153768,left,441,1,
661427_260413_210023.csv,Chrome,146.0.0.0,1280,832,MacOS,en-GB,2026-04-13_20:54:22,2026-04-13_13:54:22,2026-04-13_14:46:24,https://www.testable.org/experiment/20534/661427/start,361.901,361901,6.0316,18,test,GREEN,green,right,critical,congruent,,word,800,left up right,1,,,,,800,48,16.67,155224,right,664,1,
661427_260413_210023.csv,Chrome,146.0.0.0,1280,832,MacOS,en-GB,2026-04-13_20:54:22,2026-04-13_13:54:22,2026-04-13_14:46:24,https://www.testable.org/experiment/20534/661427/start,361.901,361901,6.0316,17,test,BLUE,blue,up,critical,congruent,,word,800,left up right,1,,,,,800,48,16.67,156554,up,528,1,
661427_260413_210023.csv,Chrome,146.0.0.0,1280,832,MacOS,en-GB,2026-04-13_20:54:22,2026-04-13_13:54:22,2026-04-13_14:46:24,https://www.testable.org/experiment/20534/661427/start,361.901,361901,6.0316,11,test,RED,red,left,critical,congruent,,word,800,left up right,1,,,,,800,48,16.66,158556,left,1212,1,
661427_260413_210023.csv,Chrome,146.0.0.0,1280,832,MacOS,en-GB,2026-04-13_20:54:22,2026-04-13_13:54:22,2026-04-13_14:46:24,https://www.testable.org/experiment/20534/661427/start,361.901,361901,6.0316,33,test,GREEN,blue,up,critical,incongruent,,word,800,left up right,1,,,,,800,48,16.67,160545,up,1202,1,
661427_260413_210023.csv,Chrome,146.0.0.0,1280,832,MacOS,en-GB,2026-04-13_20:54:22,2026-04-13_13:54:22,2026-04-13_14:46:24,https://www.testable.org/experiment/20534/661427/start,361.901,361901,6.0316,15,test,BLUE,blue,up,critical,congruent,,word,800,left up right,1,,,,,800,48,16.67,162038,up,695,1,
661427_260413_210023.csv,Chrome,146.0.0.0,1280,832,MacOS,en-GB,2026-04-13_20:54:22,2026-04-13_13:54:22,2026-04-13_14:46:24,https://www.testable.org/experiment/20534/661427/start,361.901,361901,6.0316,16,test,BLUE,blue,up,critical,congruent,,word,800,left up right,1,,,,,800,48,16.66,163277,up,450,1,
661427_260413_210023.csv,Chrome,146.0.0.0,1280,832,MacOS,en-GB,2026-04-13_20:54:22,2026-04-13_13:54:22,2026-04-13_14:46:24,https://www.testable.org/experiment/20534/661427/start,361.901,361901,6.0316,29,test,BLUE,green,right,critical,incongruent,,word,800,left up right,1,,,,,800,48,16.67,164714,right,637,1,
661427_260413_210023.csv,Chrome,146.0.0.0,1280,832,MacOS,en-GB,2026-04-13_20:54:22,2026-04-13_13:54:22,2026-04-13_14:46:24,https://www.testable.org/experiment/20534/661427/start,361.901,361901,6.0316,24,test,RED,green,right,critical,incongruent,,word,800,left up right,1,,,,,799,48,16.65,166269,right,759,1,
661427_260413_210023.csv,Chrome,146.0.0.0,1280,832,MacOS,en-GB,2026-04-13_20:54:22,2026-04-13_13:54:22,2026-04-13_14:46:24,https://www.testable.org/experiment/20534/661427/start,361.901,361901,6.0316,22,test,RED,green,right,critical,incongruent,,word,800,left up right,1,,,,,800,48,16.66,167529,right,469,1,
661427_260413_210023.csv,Chrome,146.0.0.0,1280,832,MacOS,en-GB,2026-04-13_20:54:22,2026-04-13_13:54:22,2026-04-13_14:46:24,https://www.testable.org/experiment/20534/661427/start,361.901,361901,6.0316,41,test,SHOE,blue,up,filler,,,word,800,left up right,1,,,,,800,48,16.67,168945,up,618,1,
661427_260413_210023.csv,Chrome,146.0.0.0,1280,832,MacOS,en-GB,2026-04-13_20:54:22,2026-04-13_13:54:22,2026-04-13_14:46:24,https://www.testable.org/experiment/20534/661427/start,361.901,361901,6.0316,12,test,RED,red,left,critical,congruent,,word,800,left up right,1,,,,,800,48,16.67,170749,left,1006,1,
661427_260413_210023.csv,Chrome,146.0.0.0,1280,832,MacOS,en-GB,2026-04-13_20:54:22,2026-04-13_13:54:22,2026-04-13_14:46:24,https://www.testable.org/experiment/20534/661427/start,361.901,361901,6.0316,25,test,RED,blue,up,critical,incongruent,,word,800,left up right,1,,,,,800,48,16.67,172484,up,941,1,
661427_260413_210023.csv,Chrome,146.0.0.0,1280,832,MacOS,en-GB,2026-04-13_20:54:22,2026-04-13_13:54:22,2026-04-13_14:46:24,https://www.testable.org/experiment/20534/661427/start,361.901,361901,6.0316,36,test,CAR,blue,up,filler,,,word,800,left up right,1,,,,,800,48,16.67,175315,up,2038,1,
661427_260413_210023.csv,Chrome,146.0.0.0,1280,832,MacOS,en-GB,2026-04-13_20:54:22,2026-04-13_13:54:22,2026-04-13_14:46:24,https://www.testable.org/experiment/20534/661427/start,361.901,361901,6.0316,21,test,GREEN,green,right,critical,congruent,,word,800,left up right,1,,,,,800,48,16.68,176930,right,820,1,
661427_260413_210023.csv,Chrome,146.0.0.0,1280,832,MacOS,en-GB,2026-04-13_20:54:22,2026-04-13_13:54:22,2026-04-13_14:46:24,https://www.testable.org/experiment/20534/661427/start,361.901,361901,6.0316,32,test,GREEN,red,left,critical,incongruent,,word,800,left up right,1,,,,,801,48,16.69,188391,left,10665,1,
661427_260413_210023.csv,Chrome,146.0.0.0,1280,832,MacOS,en-GB,2026-04-13_20:54:22,2026-04-13_13:54:22,2026-04-13_14:46:24,https://www.testable.org/experiment/20534/661427/start,361.901,361901,6.0316,39,test,SHOE,red,left,filler,,,word,800,left up right,1,,,,,800,48,16.67,190127,left,934,1,
661427_260413_210023.csv,Chrome,146.0.0.0,1280,832,MacOS,en-GB,2026-04-13_20:54:22,2026-04-13_13:54:22,2026-04-13_14:46:24,https://www.testable.org/experiment/20534/661427/start,361.901,361901,6.0316,37,test,CAR,red,left,filler,,,word,800,left up right,1,,,,,800,48,16.67,211596,left,20669,1,
661427_260413_210023.csv,Chrome,146.0.0.0,1280,832,MacOS,en-GB,2026-04-13_20:54:22,2026-04-13_13:54:22,2026-04-13_14:46:24,https://www.testable.org/experiment/20534/661427/start,361.901,361901,6.0316,44,test,HOUSE,red,left,filler,,,word,800,left up right,1,,,,,800,48,16.67,213085,left,692,1,
661427_260413_210023.csv,Chrome,146.0.0.0,1280,832,MacOS,en-GB,2026-04-13_20:54:22,2026-04-13_13:54:22,2026-04-13_14:46:24,https://www.testable.org/experiment/20534/661427/start,361.901,361901,6.0316,27,test,BLUE,green,right,critical,incongruent,,word,800,left up right,1,,,,,800,48,16.67,219477,right,5600,1,
661427_260413_210023.csv,Chrome,146.0.0.0,1280,832,MacOS,en-GB,2026-04-13_20:54:22,2026-04-13_13:54:22,2026-04-13_14:46:24,https://www.testable.org/experiment/20534/661427/start,361.901,361901,6.0316,19,test,GREEN,green,right,critical,congruent,,word,800,left up right,1,,,,,800,48,16.66,221631,right,1354,1,
661427_260413_210023.csv,Chrome,146.0.0.0,1280,832,MacOS,en-GB,2026-04-13_20:54:22,2026-04-13_13:54:22,2026-04-13_14:46:24,https://www.testable.org/experiment/20534/661427/start,361.901,361901,6.0316,43,test,HOUSE,blue,up,filler,,,word,800,left up right,1,,,,,801,48,16.68,223078,up,651,1,
661427_260413_210023.csv,Chrome,146.0.0.0,1280,832,MacOS,en-GB,2026-04-13_20:54:22,2026-04-13_13:54:22,2026-04-13_14:46:24,https://www.testable.org/experiment/20534/661427/start,361.901,361901,6.0316,40,test,SHOE,green,right,filler,,,word,800,left up right,1,,,,,800,48,16.66,224942,right,1065,1,
661427_260413_210023.csv,Chrome,146.0.0.0,1280,832,MacOS,en-GB,2026-04-13_20:54:22,2026-04-13_13:54:22,2026-04-13_14:46:24,https://www.testable.org/experiment/20534/661427/start,361.901,361901,6.0316,35,test,CAR,green,right,filler,,,word,800,left up right,1,,,,,800,48,16.67,226503,right,761,1,
661427_260413_210023.csv,Chrome,146.0.0.0,1280,832,MacOS,en-GB,2026-04-13_20:54:22,2026-04-13_13:54:22,2026-04-13_14:46:24,https://www.testable.org/experiment/20534/661427/start,361.901,361901,6.0316,38,test,SHOE,blue,up,filler,,,word,800,left up right,1,,,,,800,48,16.67,228485,up,1192,1,
661427_260413_210023.csv,Chrome,146.0.0.0,1280,832,MacOS,en-GB,2026-04-13_20:54:22,2026-04-13_13:54:22,2026-04-13_14:46:24,https://www.testable.org/experiment/20534/661427/start,361.901,361901,6.0316,28,test,BLUE,red,left,critical,incongruent,,word,800,left up right,1,,,,,799,48,16.65,233606,left,4329,1,
661427_260413_210023.csv,Chrome,146.0.0.0,1280,832,MacOS,en-GB,2026-04-13_20:54:22,2026-04-13_13:54:22,2026-04-13_14:46:24,https://www.testable.org/experiment/20534/661427/start,361.901,361901,6.0316,66,test,GREEN,red,left,critical,incongruent,,word,800,left up right,2,,,,,800,48,16.67,239781,left,5388,1,
661427_260413_210023.csv,Chrome,146.0.0.0,1280,832,MacOS,en-GB,2026-04-13_20:54:22,2026-04-13_13:54:22,2026-04-13_14:46:24,https://www.testable.org/experiment/20534/661427/start,361.901,361901,6.0316,65,test,BLUE,green,right,critical,incongruent,,word,800,left up right,2,,,,,800,48,16.67,242963,right,2387,1,
661427_260413_210023.csv,Chrome,146.0.0.0,1280,832,MacOS,en-GB,2026-04-13_20:54:22,2026-04-13_13:54:22,2026-04-13_14:46:24,https://www.testable.org/experiment/20534/661427/start,361.901,361901,6.0316,76,test,SHOE,green,right,filler,,,word,800,left up right,2,,,,,800,48,16.67,257422,right,13663,1,
661427_260413_210023.csv,Chrome,146.0.0.0,1280,832,MacOS,en-GB,2026-04-13_20:54:22,2026-04-13_13:54:22,2026-04-13_14:46:24,https://www.testable.org/experiment/20534/661427/start,361.901,361901,6.0316,62,test,BLUE,red,left,critical,incongruent,,word,800,left up right,2,,,,,800,48,16.67,270712,left,12503,1,
661427_260413_210023.csv,Chrome,146.0.0.0,1280,832,MacOS,en-GB,2026-04-13_20:54:22,2026-04-13_13:54:22,2026-04-13_14:46:24,https://www.testable.org/experiment/20534/661427/start,361.901,361901,6.0316,57,test,GREEN,green,right,critical,congruent,,word,800,left up right,2,,,,,800,48,16.66,272530,right,1020,1,
661427_260413_210023.csv,Chrome,146.0.0.0,1280,832,MacOS,en-GB,2026-04-13_20:54:22,2026-04-13_13:54:22,2026-04-13_14:46:24,https://www.testable.org/experiment/20534/661427/start,361.901,361901,6.0316,81,test,HOUSE,green,right,filler,,,word,800,left up right,2,,,,,800,48,16.67,274187,right,861,1,
661427_260413_210023.csv,Chrome,146.0.0.0,1280,832,MacOS,en-GB,2026-04-13_20:54:22,2026-04-13_13:54:22,2026-04-13_14:46:24,https://www.testable.org/experiment/20534/661427/start,361.901,361901,6.0316,72,test,CAR,blue,up,filler,,,word,800,left up right,2,,,,,800,48,16.67,276700,up,1724,1,
661427_260413_210023.csv,Chrome,146.0.0.0,1280,832,MacOS,en-GB,2026-04-13_20:54:22,2026-04-13_13:54:22,2026-04-13_14:46:24,https://www.testable.org/experiment/20534/661427/start,361.901,361901,6.0316,64,test,BLUE,red,left,critical,incongruent,,word,800,left up right,2,,,,,800,48,16.67,278872,left,1381,1,
661427_260413_210023.csv,Chrome,146.0.0.0,1280,832,MacOS,en-GB,2026-04-13_20:54:22,2026-04-13_13:54:22,2026-04-13_14:46:24,https://www.testable.org/experiment/20534/661427/start,361.901,361901,6.0316,47,test,RED,red,left,critical,congruent,,word,800,left up right,2,,,,,800,48,16.67,280559,left,899,1,
661427_260413_210023.csv,Chrome,146.0.0.0,1280,832,MacOS,en-GB,2026-04-13_20:54:22,2026-04-13_13:54:22,2026-04-13_14:46:24,https://www.testable.org/experiment/20534/661427/start,361.901,361901,6.0316,74,test,SHOE,blue,up,filler,,,word,800,left up right,2,,,,,800,48,16.67,282300,right,940,0,
661427_260413_210023.csv,Chrome,146.0.0.0,1280,832,MacOS,en-GB,2026-04-13_20:54:22,2026-04-13_13:54:22,2026-04-13_14:46:24,https://www.testable.org/experiment/20534/661427/start,361.901,361901,6.0316,63,test,BLUE,green,right,critical,incongruent,,word,800,left up right,2,,,,,800,48,16.67,290728,right,7635,1,
661427_260413_210023.csv,Chrome,146.0.0.0,1280,832,MacOS,en-GB,2026-04-13_20:54:22,2026-04-13_13:54:22,2026-04-13_14:46:24,https://www.testable.org/experiment/20534/661427/start,361.901,361901,6.0316,75,test,SHOE,red,left,filler,,,word,800,left up right,2,,,,,800,48,16.67,292224,left,700,1,
661427_260413_210023.csv,Chrome,146.0.0.0,1280,832,MacOS,en-GB,2026-04-13_20:54:22,2026-04-13_13:54:22,2026-04-13_14:46:24,https://www.testable.org/experiment/20534/661427/start,361.901,361901,6.0316,70,test,CAR,red,left,filler,,,word,800,left up right,2,,,,,800,48,16.67,293659,left,633,1,
661427_260413_210023.csv,Chrome,146.0.0.0,1280,832,MacOS,en-GB,2026-04-13_20:54:22,2026-04-13_13:54:22,2026-04-13_14:46:24,https://www.testable.org/experiment/20534/661427/start,361.901,361901,6.0316,79,test,HOUSE,blue,up,filler,,,word,800,left up right,2,,,,,800,48,16.67,297205,up,2746,1,
661427_260413_210023.csv,Chrome,146.0.0.0,1280,832,MacOS,en-GB,2026-04-13_20:54:22,2026-04-13_13:54:22,2026-04-13_14:46:24,https://www.testable.org/experiment/20534/661427/start,361.901,361901,6.0316,73,test,CAR,red,left,filler,,,word,800,left up right,2,,,,,800,48,16.67,298736,left,744,1,
661427_260413_210023.csv,Chrome,146.0.0.0,1280,832,MacOS,en-GB,2026-04-13_20:54:22,2026-04-13_13:54:22,2026-04-13_14:46:24,https://www.testable.org/experiment/20534/661427/start,361.901,361901,6.0316,77,test,SHOE,blue,up,filler,,,word,800,left up right,2,,,,,800,48,16.67,300625,up,1099,1,
661427_260413_210023.csv,Chrome,146.0.0.0,1280,832,MacOS,en-GB,2026-04-13_20:54:22,2026-04-13_13:54:22,2026-04-13_14:46:24,https://www.testable.org/experiment/20534/661427/start,361.901,361901,6.0316,61,test,RED,blue,up,critical,incongruent,,word,800,left up right,2,,,,,800,48,16.67,302226,up,800,1,
661427_260413_210023.csv,Chrome,146.0.0.0,1280,832,MacOS,en-GB,2026-04-13_20:54:22,2026-04-13_13:54:22,2026-04-13_14:46:24,https://www.testable.org/experiment/20534/661427/start,361.901,361901,6.0316,71,test,CAR,green,right,filler,,,word,800,left up right,2,,,,,800,48,16.67,303938,right,913,1,
661427_260413_210023.csv,Chrome,146.0.0.0,1280,832,MacOS,en-GB,2026-04-13_20:54:22,2026-04-13_13:54:22,2026-04-13_14:46:24,https://www.testable.org/experiment/20534/661427/start,361.901,361901,6.0316,58,test,RED,green,right,critical,incongruent,,word,800,left up right,2,,,,,800,48,16.67,305367,right,642,1,
661427_260413_210023.csv,Chrome,146.0.0.0,1280,832,MacOS,en-GB,2026-04-13_20:54:22,2026-04-13_13:54:22,2026-04-13_14:46:24,https://www.testable.org/experiment/20534/661427/start,361.901,361901,6.0316,59,test,RED,blue,up,critical,incongruent,,word,800,left up right,2,,,,,800,48,16.67,307018,up,859,1,
661427_260413_210023.csv,Chrome,146.0.0.0,1280,832,MacOS,en-GB,2026-04-13_20:54:22,2026-04-13_13:54:22,2026-04-13_14:46:24,https://www.testable.org/experiment/20534/661427/start,361.901,361901,6.0316,55,test,GREEN,green,right,critical,congruent,,word,800,left up right,2,,,,,800,48,16.66,312510,right,4701,1,
661427_260413_210023.csv,Chrome,146.0.0.0,1280,832,MacOS,en-GB,2026-04-13_20:54:22,2026-04-13_13:54:22,2026-04-13_14:46:24,https://www.testable.org/experiment/20534/661427/start,361.901,361901,6.0316,56,test,GREEN,green,right,critical,congruent,,word,800,left up right,2,,,,,800,48,16.67,314008,right,699,1,
661427_260413_210023.csv,Chrome,146.0.0.0,1280,832,MacOS,en-GB,2026-04-13_20:54:22,2026-04-13_13:54:22,2026-04-13_14:46:24,https://www.testable.org/experiment/20534/661427/start,361.901,361901,6.0316,80,test,HOUSE,red,left,filler,,,word,800,left up right,2,,,,,800,48,16.67,315447,left,637,1,
661427_260413_210023.csv,Chrome,146.0.0.0,1280,832,MacOS,en-GB,2026-04-13_20:54:22,2026-04-13_13:54:22,2026-04-13_14:46:24,https://www.testable.org/experiment/20534/661427/start,361.901,361901,6.0316,49,test,RED,red,left,critical,congruent,,word,800,left up right,2,,,,,800,48,16.67,317022,left,780,1,
661427_260413_210023.csv,Chrome,146.0.0.0,1280,832,MacOS,en-GB,2026-04-13_20:54:22,2026-04-13_13:54:22,2026-04-13_14:46:24,https://www.testable.org/experiment/20534/661427/start,361.901,361901,6.0316,69,test,GREEN,blue,up,critical,incongruent,,word,800,left up right,2,,,,,801,48,16.69,321730,up,3920,1,
661427_260413_210023.csv,Chrome,146.0.0.0,1280,832,MacOS,en-GB,2026-04-13_20:54:22,2026-04-13_13:54:22,2026-04-13_14:46:24,https://www.testable.org/experiment/20534/661427/start,361.901,361901,6.0316,52,test,BLUE,blue,up,critical,congruent,,word,800,left up right,2,,,,,800,48,16.67,323313,up,787,1,
661427_260413_210023.csv,Chrome,146.0.0.0,1280,832,MacOS,en-GB,2026-04-13_20:54:22,2026-04-13_13:54:22,2026-04-13_14:46:24,https://www.testable.org/experiment/20534/661427/start,361.901,361901,6.0316,68,test,GREEN,red,left,critical,incongruent,,word,800,left up right,2,,,,,800,48,16.67,324918,left,808,1,
661427_260413_210023.csv,Chrome,146.0.0.0,1280,832,MacOS,en-GB,2026-04-13_20:54:22,2026-04-13_13:54:22,2026-04-13_14:46:24,https://www.testable.org/experiment/20534/661427/start,361.901,361901,6.0316,46,test,RED,red,left,critical,congruent,,word,800,left up right,2,,,,,800,48,16.66,326500,left,790,1,
661427_260413_210023.csv,Chrome,146.0.0.0,1280,832,MacOS,en-GB,2026-04-13_20:54:22,2026-04-13_13:54:22,2026-04-13_14:46:24,https://www.testable.org/experiment/20534/661427/start,361.901,361901,6.0316,51,test,BLUE,blue,up,critical,congruent,,word,800,left up right,2,,,,,800,48,16.67,328045,right,752,0,
661427_260413_210023.csv,Chrome,146.0.0.0,1280,832,MacOS,en-GB,2026-04-13_20:54:22,2026-04-13_13:54:22,2026-04-13_14:46:24,https://www.testable.org/experiment/20534/661427/start,361.901,361901,6.0316,53,test,BLUE,blue,up,critical,congruent,,word,800,left up right,2,,,,,800,48,16.67,329602,up,760,1,
661427_260413_210023.csv,Chrome,146.0.0.0,1280,832,MacOS,en-GB,2026-04-13_20:54:22,2026-04-13_13:54:22,2026-04-13_14:46:24,https://www.testable.org/experiment/20534/661427/start,361.901,361901,6.0316,78,test,HOUSE,green,right,filler,,,word,800,left up right,2,,,,,800,48,16.67,330945,right,552,1,
661427_260413_210023.csv,Chrome,146.0.0.0,1280,832,MacOS,en-GB,2026-04-13_20:54:22,2026-04-13_13:54:22,2026-04-13_14:46:24,https://www.testable.org/experiment/20534/661427/start,361.901,361901,6.0316,48,test,RED,red,left,critical,congruent,,word,800,left up right,2,,,,,800,48,16.67,332836,left,1094,1,
661427_260413_210023.csv,Chrome,146.0.0.0,1280,832,MacOS,en-GB,2026-04-13_20:54:22,2026-04-13_13:54:22,2026-04-13_14:46:24,https://www.testable.org/experiment/20534/661427/start,361.901,361901,6.0316,50,test,BLUE,blue,up,critical,congruent,,word,800,left up right,2,,,,,800,48,16.67,342230,up,8605,1,
661427_260413_210023.csv,Chrome,146.0.0.0,1280,832,MacOS,en-GB,2026-04-13_20:54:22,2026-04-13_13:54:22,2026-04-13_14:46:24,https://www.testable.org/experiment/20534/661427/start,361.901,361901,6.0316,60,test,RED,green,right,critical,incongruent,,word,800,left up right,2,,,,,800,48,16.66,344372,right,1346,1,
